rtosTick,pitch,roll,yaw,ax,ay,az,gx,gy,gz,mx,my,mz,m1CMD,m2CMD,m3CMD,m4CMD,asp,asr,asy,rsp,rsr,rsy
4097,3.6147,11.796,233.67,-0.76338,3.6855,15.98,0.072712,-0.10994,-0.34259,0.03161,-0.03538,-0.02349,1.25,1.25,1.25,1.25,0,0,0,0,0,0
4098,3.8,11.76,232.77,-0.76645,3.6863,15.986,0.072822,-0.10985,-0.3425,0.03161,-0.03538,-0.02349,1.25,1.25,1.25,1.25,0,0,0,0,0,0
4099,3.815,11.803,232.02,-0.76447,3.686,15.989,0.07277,-0.1099,-0.3424,0.03161,-0.03538,-0.02349,1.25,1.25,1.25,1.25,0,0,0,0,0,0
4100,3.8299,11.845,231.26,-0.76248,3.6857,15.992,0.072718,-0.10994,-0.3423,0.03161,-0.03538,-0.02349,1.25,1.25,1.25,1.25,0,0,0,0,0,0
4102,3.7141,11.974,230,-0.75907,3.6775,15.993,0.072579,-0.10981,-0.34219,0.03161,-0.03538,-0.02349,1.25,1.25,1.25,1.25,0,0,0,0,0,0
4104,3.5478,12.108,228.94,-0.75154,3.6702,15.981,0.072569,-0.10977,-0.34211,0.03161,-0.03538,-0.02349,1.25,1.25,1.25,1.25,0,0,0,0,0,0
4106,2.7962,12.139,230.66,-0.74711,3.6628,15.955,0.071955,-0.10994,-0.3421,-0.06873,-0.06902,-0.01537,1.25,1.25,1.25,1.25,0,0,0,0,0,0
4108,2.0846,12.158,232.37,-0.74584,3.6574,15.958,0.071663,-0.10997,-0.34212,-0.06873,-0.06902,-0.01537,1.25,1.25,1.25,1.25,0,0,0,0,0,0
4110,1.411,12.166,234.06,-0.73729,3.6492,15.957,0.071753,-0.10969,-0.3422,-0.06873,-0.06902,-0.01537,1.25,1.25,1.25,1.25,0,0,0,0,0,0
4112,0.77566,12.164,235.74,-0.73088,3.645,15.955,0.072063,-0.10964,-0.34223,-0.06873,-0.06902,-0.01537,1.25,1.25,1.25,1.25,0,0,0,0,0,0
4114,0.17904,12.154,237.41,-0.72894,3.648,15.959,0.071901,-0.10974,-0.34225,-0.06873,-0.06902,-0.01537,1.25,1.25,1.25,1.25,0,0,0,0,0,0
4116,-0.37845,12.139,239.06,-0.73121,3.6571,15.965,0.072082,-0.1099,-0.34232,-0.06873,-0.06902,-0.01537,1.25,1.25,1.25,1.25,0,0,0,0,0,0
4118,-0.89624,12.117,240.7,-0.73816,3.6619,15.97,0.072061,-0.10982,-0.34249,-0.06873,-0.06902,-0.01537,1.25,1.25,1.25,1.25,0,0,0,0,0,0
4120,-1.3753,12.091,242.33,-0.74426,3.6716,15.982,0.072261,-0.10952,-0.34264,-0.06873,-0.06902,-0.01537,1.25,1.25,1.25,1.25,0,0,0,0,0,0
4122,-2.1046,11.878,243.99,-0.74743,3.6735,15.983,0.072287,-0.10939,-0.34266,-0.05771,-0.03683,-0.01943,1.25,1.25,1.25,1.25,0,0,0,0,0,0
4124,-2.7776,11.67,245.64,-0.76086,3.678,15.999,0.072187,-0.10916,-0.34275,-0.05771,-0.03683,-0.01943,1.25,1.25,1.25,1.25,0,0,0,0,0,0
4126,-3.3967,11.465,247.3,-0.76679,3.6797,16.005,0.072097,-0.10917,-0.34282,-0.05771,-0.03683,-0.01943,1.25,1.25,1.25,1.25,0,0,0,0,0,0
4128,-3.9644,11.265,248.94,-0.76584,3.6797,16.007,0.071934,-0.10949,-0.34265,-0.05771,-0.03683,-0.01943,1.25,1.25,1.25,1.25,0,0,0,0,0,0
4130,-4.483,11.07,250.58,-0.7601,3.6759,16.004,0.071613,-0.10999,-0.34245,-0.05771,-0.03683,-0.01943,1.25,1.25,1.25,1.25,0,0,0,0,0,0
4132,-4.9545,10.879,252.2,-0.75069,3.6724,15.996,0.07155,-0.11011,-0.34233,-0.05771,-0.03683,-0.01943,1.25,1.25,1.25,1.25,0,0,0,0,0,0
4134,-5.3789,10.694,253.81,-0.74715,3.6723,16.006,0.071879,-0.11012,-0.34223,-0.05771,-0.03683,-0.01943,1.25,1.25,1.25,1.25,0,0,0,0,0,0
4136,-5.7578,10.515,255.41,-0.7437,3.6726,16.01,0.072119,-0.1101,-0.3421,-0.05771,-0.03683,-0.01943,1.25,1.25,1.25,1.25,0,0,0,0,0,0
4138,-5.874,10.467,256.99,-0.7354,3.6695,16.024,0.072001,-0.1101,-0.34192,-0.07801,-0.05539,-0.01508,1.25,1.25,1.25,1.25,0,0,0,0,0,0
4140,-5.9689,10.417,258.54,-0.72694,3.6694,16.021,0.071892,-0.11009,-0.3419,-0.07801,-0.05539,-0.01508,1.25,1.25,1.25,1.25,0,0,0,0,0,0
4142,-6.0413,10.367,260.07,-0.7284,3.6693,16.023,0.071948,-0.10995,-0.34201,-0.07801,-0.05539,-0.01508,1.25,1.25,1.25,1.25,0,0,0,0,0,0
4144,-6.0915,10.318,261.59,-0.7328,3.6673,16.021,0.072136,-0.10977,-0.34202,-0.07801,-0.05539,-0.01508,1.25,1.25,1.25,1.25,0,0,0,0,0,0
4146,-6.1208,10.27,263.08,-0.737,3.6694,16.015,0.072084,-0.10991,-0.34197,-0.07801,-0.05539,-0.01508,1.25,1.25,1.25,1.25,0,0,0,0,0,0
4148,-6.1295,10.224,264.56,-0.74406,3.6684,16.016,0.071996,-0.10954,-0.34209,-0.07801,-0.05539,-0.01508,1.25,1.25,1.25,1.25,0,0,0,0,0,0
4150,-6.1183,10.18,266.01,-0.75362,3.6712,16.022,0.072293,-0.10915,-0.34231,-0.07801,-0.05539,-0.01508,1.25,1.25,1.25,1.25,0,0,0,0,0,0
4152,-6.0899,10.138,267.45,-0.75712,3.6694,16.018,0.07265,-0.10901,-0.34236,-0.07801,-0.05539,-0.01508,1.25,1.25,1.25,1.25,0,0,0,0,0,0
4154,-5.9918,10.144,268.81,-0.76046,3.6699,16.01,0.072557,-0.1091,-0.34232,-0.08062,-0.06351,-0.01305,1.25,1.25,1.25,1.25,0,0,0,0,0,0
4156,-5.8861,10.148,270.16,-0.75407,3.6672,16.022,0.07209,-0.1093,-0.34232,-0.08062,-0.06351,-0.01305,1.25,1.25,1.25,1.25,0,0,0,0,0,0
4158,-5.7726,10.152,271.48,-0.75268,3.6685,16.042,0.072046,-0.10958,-0.34229,-0.08062,-0.06351,-0.01305,1.25,1.25,1.25,1.25,0,0,0,0,0,0
4160,-5.6526,10.157,272.79,-0.74704,3.6718,16.046,0.072099,-0.10952,-0.34232,-0.08062,-0.06351,-0.01305,1.25,1.25,1.25,1.25,0,0,0,0,0,0
4162,-5.5257,10.162,274.07,-0.74623,3.6729,16.043,0.072025,-0.1096,-0.34238,-0.08062,-0.06351,-0.01305,1.25,1.25,1.25,1.25,0,0,0,0,0,0
4164,-5.3929,10.169,275.32,-0.74393,3.674,16.043,0.07202,-0.10993,-0.34226,-0.08062,-0.06351,-0.01305,1.25,1.25,1.25,1.25,0,0,0,0,0,0
4166,-5.2569,10.179,276.56,-0.73359,3.6766,16.029,0.071977,-0.11022,-0.34204,-0.08062,-0.06351,-0.01305,1.25,1.25,1.25,1.25,0,0,0,0,0,0
4168,-5.1163,10.19,277.77,-0.73111,3.6775,16.035,0.072216,-0.11011,-0.34194,-0.08062,-0.06351,-0.01305,1.25,1.25,1.25,1.25,0,0,0,0,0,0
4169,-5.0548,10.21,278.25,-0.73,3.6784,16.036,0.072406,-0.11006,-0.34188,-0.062785,-0.058435,-0.01682,1.25,1.25,1.25,1.25,0,0,0,0,0,0
4170,-4.9933,10.23,278.72,-0.7289,3.6794,16.037,0.072597,-0.11001,-0.34181,-0.04495,-0.05336,-0.02059,1.25,1.25,1.25,1.25,0,0,0,0,0,0
4172,-4.8623,10.269,279.65,-0.7338,3.6802,16.039,0.072719,-0.11,-0.34172,-0.04495,-0.05336,-0.02059,1.25,1.25,1.25,1.25,0,0,0,0,0,0
4174,-4.7235,10.306,280.56,-0.74095,3.6754,16.022,0.072721,-0.10988,-0.34169,-0.04495,-0.05336,-0.02059,1.25,1.25,1.25,1.25,0,0,0,0,0,0
4176,-4.5787,10.339,281.44,-0.74618,3.6689,16.032,0.073062,-0.10957,-0.34179,-0.04495,-0.05336,-0.02059,1.25,1.25,1.25,1.25,0,0,0,0,0,0
4178,-4.4305,10.371,282.31,-0.74652,3.6672,16.041,0.07296,-0.10956,-0.34187,-0.04495,-0.05336,-0.02059,1.25,1.25,1.25,1.25,0,0,0,0,0,0
4180,-4.28,10.4,283.16,-0.74593,3.6636,16.058,0.072478,-0.10958,-0.34194,-0.04495,-0.05336,-0.02059,1.25,1.25,1.25,1.25,0,0,0,0,0,0
4182,-4.1263,10.429,283.98,-0.7505,3.6662,16.076,0.072226,-0.10967,-0.342,-0.04495,-0.05336,-0.02059,1.25,1.25,1.25,1.25,0,0,0,0,0,0
4184,-3.9719,10.458,284.79,-0.74801,3.6664,16.066,0.072113,-0.10974,-0.34209,-0.04495,-0.05336,-0.02059,1.25,1.25,1.25,1.25,0,0,0,0,0,0
4186,-3.7362,10.547,285.42,-0.7396,3.6661,16.068,0.071884,-0.10985,-0.34217,-0.03306,-0.04814,-0.0203,1.25,1.25,1.25,1.25,0,0,0,0,0,0
4188,-3.5133,10.629,286.03,-0.73438,3.6671,16.059,0.071601,-0.11007,-0.34229,-0.03306,-0.04814,-0.0203,1.25,1.25,1.25,1.25,0,0,0,0,0,0
4190,-3.302,10.705,286.63,-0.7303,3.6681,16.058,0.072091,-0.10992,-0.34233,-0.03306,-0.04814,-0.0203,1.25,1.25,1.25,1.25,0,0,0,0,0,0
4192,-3.0993,10.777,287.22,-0.73266,3.6703,16.063,0.072637,-0.10975,-0.34229,-0.03306,-0.04814,-0.0203,1.25,1.25,1.25,1.25,0,0,0,0,0,0
4194,-2.9053,10.844,287.79,-0.7335,3.6729,16.06,0.072884,-0.10973,-0.34233,-0.03306,-0.04814,-0.0203,1.25,1.25,1.25,1.25,0,0,0,0,0,0
4196,-2.7189,10.907,288.35,-0.73518,3.6731,16.06,0.073081,-0.10945,-0.34227,-0.03306,-0.04814,-0.0203,1.25,1.25,1.25,1.25,0,0,0,0,0,0
4198,-2.5408,10.968,288.89,-0.73464,3.6766,16.06,0.072847,-0.10957,-0.34218,-0.03306,-0.04814,-0.0203,1.25,1.25,1.25,1.25,0,0,0,0,0,0
4200,-2.369,11.025,289.42,-0.73774,3.6784,16.049,0.072506,-0.10971,-0.34217,-0.03306,-0.04814,-0.0203,1.25,1.25,1.25,1.25,0,0,0,0,0,0
4202,-1.1126,11.427,288.01,-0.74682,3.6776,16.046,0.072358,-0.10983,-0.34215,-0.00116,-0.07105,-0.01537,1.25,1.25,1.25,1.25,0,0,0,0,0,0
4204,-0.033061,11.771,286.67,-0.74945,3.6779,16.044,0.072441,-0.10995,-0.34208,-0.00116,-0.07105,-0.01537,1.25,1.25,1.25,1.25,0,0,0,0,0,0
4206,0.86125,12.059,285.41,-0.74733,3.6785,16.039,0.072544,-0.10993,-0.34215,-0.00116,-0.07105,-0.01537,1.25,1.25,1.25,1.25,0,0,0,0,0,0
4208,1.5783,12.292,284.24,-0.74414,3.6738,16.024,0.072579,-0.10989,-0.3422,-0.00116,-0.07105,-0.01537,1.25,1.25,1.25,1.25,0,0,0,0,0,0
4210,2.141,12.476,283.17,-0.74975,3.672,16.016,0.072222,-0.11001,-0.34228,-0.00116,-0.07105,-0.01537,1.25,1.25,1.25,1.25,0,0,0,0,0,0
4212,2.568,12.62,282.19,-0.74807,3.6687,15.999,0.072058,-0.11014,-0.34234,-0.00116,-0.07105,-0.01537,1.25,1.25,1.25,1.25,0,0,0,0,0,0
4214,2.8797,12.73,281.3,-0.74038,3.6638,15.988,0.072044,-0.11019,-0.34245,-0.00116,-0.07105,-0.01537,1.25,1.25,1.25,1.25,0,0,0,0,0,0
4216,3.1007,12.812,280.49,-0.73587,3.66,15.993,0.072178,-0.10992,-0.34253,-0.00116,-0.07105,-0.01537,1.25,1.25,1.25,1.25,0,0,0,0,0,0
4218,2.6053,12.698,281.01,-0.73874,3.6579,16.003,0.071992,-0.10977,-0.34259,-0.01566,-0.03944,-0.01885,1.25,1.25,1.25,1.25,0,0,0,0,0,0
4220,2.1883,12.603,281.51,-0.74258,3.6553,16.006,0.072046,-0.10969,-0.34264,-0.01566,-0.03944,-0.01885,1.25,1.25,1.25,1.25,0,0,0,0,0,0
4222,1.8389,12.527,281.98,-0.74177,3.6578,16.003,0.071715,-0.10968,-0.34273,-0.01566,-0.03944,-0.01885,1.25,1.25,1.25,1.25,0,0,0,0,0,0
4224,1.5472,12.466,282.43,-0.73722,3.6565,15.997,0.071988,-0.10948,-0.34277,-0.01566,-0.03944,-0.01885,1.25,1.25,1.25,1.25,0,0,0,0,0,0
4226,1.3082,12.419,282.85,-0.73952,3.6591,16.004,0.071873,-0.10965,-0.34268,-0.01566,-0.03944,-0.01885,1.25,1.25,1.25,1.25,0,0,0,0,0,0
4228,1.1151,12.387,283.25,-0.74248,3.6707,16.007,0.071922,-0.10963,-0.34249,-0.01566,-0.03944,-0.01885,1.25,1.25,1.25,1.25,0,0,0,0,0,0
4230,0.96092,12.366,283.64,-0.74457,3.6787,16.011,0.072051,-0.10958,-0.34242,-0.01566,-0.03944,-0.01885,1.25,1.25,1.25,1.25,0,0,0,0,0,0
4232,0.83701,12.351,284,-0.74001,3.6796,16.026,0.072229,-0.10918,-0.34238,-0.01566,-0.03944,-0.01885,1.25,1.25,1.25,1.25,0,0,0,0,0,0
4234,0.62463,12.166,285.25,-0.73881,3.6831,16.022,0.072035,-0.10919,-0.34234,-0.11948,-0.07163,-0.02436,1.25,1.25,1.25,1.25,0,0,0,0,0,0
4236,0.43614,11.998,286.48,-0.74357,3.687,16.017,0.072051,-0.10928,-0.34227,-0.11948,-0.07163,-0.02436,1.25,1.25,1.25,1.25,0,0,0,0,0,0
4238,0.26949,11.844,287.68,-0.74576,3.687,16.017,0.071801,-0.10942,-0.34221,-0.11948,-0.07163,-0.02436,1.25,1.25,1.25,1.25,0,0,0,0,0,0
4240,0.12345,11.702,288.86,-0.74724,3.682,16.008,0.072029,-0.10929,-0.34226,-0.11948,-0.07163,-0.02436,1.25,1.25,1.25,1.25,0,0,0,0,0,0
4242,-0.0020326,11.572,290.02,-0.75355,3.6788,15.997,0.072052,-0.1093,-0.34233,-0.11948,-0.07163,-0.02436,1.25,1.25,1.25,1.25,0,0,0,0,0,0
4244,-0.10916,11.455,291.15,-0.75573,3.6757,15.98,0.072097,-0.10917,-0.34238,-0.11948,-0.07163,-0.02436,1.25,1.25,1.25,1.25,0,0,0,0,0,0
4246,-0.19919,11.35,292.26,-0.75838,3.6727,15.977,0.072267,-0.10905,-0.34241,-0.11948,-0.07163,-0.02436,1.25,1.25,1.25,1.25,0,0,0,0,0,0
4248,-0.27357,11.255,293.34,-0.75957,3.6702,15.965,0.072477,-0.10897,-0.34247,-0.11948,-0.07163,-0.02436,1.25,1.25,1.25,1.25,0,0,0,0,0,0
4250,0.05008,11.478,293.19,-0.75724,3.6701,15.966,0.072897,-0.10873,-0.34247,-0.03016,-0.07482,-0.01392,1.25,1.25,1.25,1.25,0,0,0,0,0,0
4252,0.33159,11.67,293.05,-0.75411,3.6649,15.976,0.073094,-0.10866,-0.34245,-0.03016,-0.07482,-0.01392,1.25,1.25,1.25,1.25,0,0,0,0,0,0
4254,0.57555,11.836,292.93,-0.75034,3.6632,15.987,0.073051,-0.1087,-0.34252,-0.03016,-0.07482,-0.01392,1.25,1.25,1.25,1.25,0,0,0,0,0,0
4256,0.78889,11.981,292.82,-0.7528,3.6655,16,0.073223,-0.10864,-0.34246,-0.03016,-0.07482,-0.01392,1.25,1.25,1.25,1.25,0,0,0,0,0,0
4258,0.97474,12.11,292.72,-0.75362,3.6737,16.005,0.073059,-0.1087,-0.34235,-0.03016,-0.07482,-0.01392,1.25,1.25,1.25,1.25,0,0,0,0,0,0
4260,1.1363,12.223,292.63,-0.75409,3.6784,16.011,0.072655,-0.10906,-0.34227,-0.03016,-0.07482,-0.01392,1.25,1.25,1.25,1.25,0,0,0,0,0,0
4262,1.275,12.324,292.54,-0.75012,3.6832,16.012,0.072747,-0.10917,-0.34223,-0.03016,-0.07482,-0.01392,1.25,1.25,1.25,1.25,0,0,0,0,0,0
4264,1.3938,12.414,292.47,-0.74547,3.6861,16.003,0.072866,-0.10917,-0.34234,-0.03016,-0.07482,-0.01392,1.25,1.25,1.25,1.25,0,0,0,0,0,0
4266,1.0886,11.896,294.11,-0.74629,3.6903,16,0.072887,-0.10941,-0.34232,-0.05539,-0.00377,-0.01943,1.25,1.25,1.25,1.25,0,0,0,0,0,0
4268,0.81425,11.418,295.73,-0.74518,3.6936,15.98,0.072922,-0.10962,-0.34221,-0.05539,-0.00377,-0.01943,1.25,1.25,1.25,1.25,0,0,0,0,0,0
4270,0.56995,10.977,297.34,-0.747,3.6968,15.982,0.072794,-0.10989,-0.34203,-0.05539,-0.00377,-0.01943,1.25,1.25,1.25,1.25,0,0,0,0,0,0
4272,0.35373,10.57,298.93,-0.74639,3.6938,15.987,0.072374,-0.11039,-0.34196,-0.05539,-0.00377,-0.01943,1.25,1.25,1.25,1.25,0,0,0,0,0,0
4274,0.16361,10.196,300.49,-0.7431,3.693,16.002,0.072383,-0.11054,-0.34198,-0.05539,-0.00377,-0.01943,1.25,1.25,1.25,1.25,0,0,0,0,0,0
4276,0.00019015,9.8543,302.03,-0.74695,3.6919,16.008,0.072591,-0.11063,-0.34197,-0.05539,-0.00377,-0.01943,1.25,1.25,1.25,1.25,0,0,0,0,0,0
4278,-0.13843,9.5434,303.55,-0.74879,3.6862,16,0.072514,-0.11079,-0.34187,-0.05539,-0.00377,-0.01943,1.25,1.25,1.25,1.25,0,0,0,0,0,0
4280,-0.25412,9.2628,305.04,-0.74972,3.6846,15.998,0.072417,-0.11097,-0.34174,-0.05539,-0.00377,-0.01943,1.25,1.25,1.25,1.25,0,0,0,0,0,0
4282,-0.23107,9.3604,305.95,-0.74297,3.6838,15.987,0.071864,-0.11127,-0.34167,-0.08613,-0.0406,-0.01624,1.25,1.25,1.25,1.25,0,0,0,0,0,0
4284,-0.20397,9.4541,306.83,-0.7403,3.6796,15.985,0.071847,-0.11108,-0.34177,-0.08613,-0.0406,-0.01624,1.25,1.25,1.25,1.25,0,0,0,0,0,0
4286,-0.172,9.5443,307.68,-0.74318,3.6778,15.992,0.071911,-0.11099,-0.34181,-0.08613,-0.0406,-0.01624,1.25,1.25,1.25,1.25,0,0,0,0,0,0
4288,-0.13726,9.6325,308.52,-0.73984,3.6798,15.995,0.071856,-0.11104,-0.34175,-0.08613,-0.0406,-0.01624,1.25,1.25,1.25,1.25,0,0,0,0,0,0
4290,-0.099676,9.7194,309.33,-0.73864,3.6857,16.004,0.071485,-0.11116,-0.34186,-0.08613,-0.0406,-0.01624,1.25,1.25,1.25,1.25,0,0,0,0,0,0
4292,-0.060553,9.8047,310.12,-0.73305,3.687,16.001,0.071469,-0.11114,-0.34191,-0.08613,-0.0406,-0.01624,1.25,1.25,1.25,1.25,0,0,0,0,0,0
4294,-0.018801,9.8879,310.9,-0.73257,3.6851,15.998,0.071947,-0.11098,-0.34189,-0.08613,-0.0406,-0.01624,1.25,1.25,1.25,1.25,0,0,0,0,0,0
4296,0.026164,9.9703,311.65,-0.73553,3.6863,15.986,0.072112,-0.11088,-0.34187,-0.08613,-0.0406,-0.01624,1.25,1.25,1.25,1.25,0,0,0,0,0,0
4298,0.85335,9.9849,310.53,-0.7328,3.6866,15.982,0.072348,-0.11053,-0.34195,0.0319,-0.01943,-0.01421,1.25,1.25,1.25,1.25,0,0,0,0,0,0
4300,1.6758,9.99,309.4,-0.73911,3.6889,15.997,0.072586,-0.11027,-0.342,0.0319,-0.01943,-0.01421,1.25,1.25,1.25,1.25,0,0,0,0,0,0
4302,2.4914,9.9851,308.25,-0.73998,3.6933,15.998,0.072893,-0.11006,-0.34205,0.0319,-0.01943,-0.01421,1.25,1.25,1.25,1.25,0,0,0,0,0,0
4304,3.2981,9.969,307.07,-0.73778,3.6909,16.002,0.072899,-0.1099,-0.34214,0.0319,-0.01943,-0.01421,1.25,1.25,1.25,1.25,0,0,0,0,0,0
4306,4.0945,9.9426,305.87,-0.73341,3.69,15.995,0.072941,-0.10963,-0.34218,0.0319,-0.01943,-0.01421,1.25,1.25,1.25,1.25,0,0,0,0,0,0
4308,4.8792,9.9056,304.65,-0.73542,3.691,16,0.072849,-0.10972,-0.34224,0.0319,-0.01943,-0.01421,1.25,1.25,1.25,1.25,0,0,0,0,0,0
4310,5.6489,9.8591,303.4,-0.73118,3.6939,16.002,0.073114,-0.10986,-0.3421,0.0319,-0.01943,-0.01421,1.25,1.25,1.25,1.25,0,0,0,0,0,0
4312,6.4019,9.802,302.13,-0.72942,3.69,16.002,0.07324,-0.10974,-0.34209,0.0319,-0.01943,-0.01421,1.25,1.25,1.25,1.25,0,0,0,0,0,0
4314,5.9888,9.9863,302.71,-0.72825,3.6884,16.004,0.073282,-0.10966,-0.34211,-0.06061,-0.05452,-0.01189,1.25,1.25,1.25,1.25,0,0,0,0,0,0
4316,5.6044,10.155,303.27,-0.72473,3.6861,15.999,0.073471,-0.1094,-0.34218,-0.06061,-0.05452,-0.01189,1.25,1.25,1.25,1.25,0,0,0,0,0,0
4318,5.2477,10.311,303.8,-0.72131,3.683,16.011,0.073487,-0.10932,-0.34228,-0.06061,-0.05452,-0.01189,1.25,1.25,1.25,1.25,0,0,0,0,0,0
4320,4.9167,10.454,304.32,-0.71587,3.6825,16.016,0.073362,-0.10934,-0.34237,-0.06061,-0.05452,-0.01189,1.25,1.25,1.25,1.25,0,0,0,0,0,0
4322,4.6123,10.587,304.81,-0.71856,3.6845,16.028,0.073379,-0.10951,-0.34241,-0.06061,-0.05452,-0.01189,1.25,1.25,1.25,1.25,0,0,0,0,0,0
4324,4.3316,10.71,305.29,-0.7161,3.682,16.026,0.073219,-0.10965,-0.34244,-0.06061,-0.05452,-0.01189,1.25,1.25,1.25,1.25,0,0,0,0,0,0
4326,4.0745,10.825,305.75,-0.71833,3.6843,16.025,0.072916,-0.10974,-0.34252,-0.06061,-0.05452,-0.01189,1.25,1.25,1.25,1.25,0,0,0,0,0,0
4328,3.8393,10.934,306.19,-0.72023,3.6902,16.026,0.072699,-0.10981,-0.34258,-0.06061,-0.05452,-0.01189,1.25,1.25,1.25,1.25,0,0,0,0,0,0
4330,3.6625,10.995,307.27,-0.71376,3.6896,16.021,0.072812,-0.10978,-0.34257,-0.10324,-0.03248,-0.01102,1.25,1.25,1.25,1.25,0,0,0,0,0,0
4332,3.4994,11.052,308.32,-0.72034,3.6885,16.033,0.072583,-0.1099,-0.34262,-0.10324,-0.03248,-0.01102,1.25,1.25,1.25,1.25,0,0,0,0,0,0
4334,3.3492,11.104,309.36,-0.72575,3.6887,16.027,0.072049,-0.11022,-0.34258,-0.10324,-0.03248,-0.01102,1.25,1.25,1.25,1.25,0,0,0,0,0,0
4336,3.2102,11.152,310.36,-0.72652,3.6867,16.028,0.071601,-0.11038,-0.34257,-0.10324,-0.03248,-0.01102,1.25,1.25,1.25,1.25,0,0,0,0,0,0
4338,3.0815,11.198,311.34,-0.72601,3.6869,16.024,0.071626,-0.11047,-0.34258,-0.10324,-0.03248,-0.01102,1.25,1.25,1.25,1.25,0,0,0,0,0,0
4340,2.9624,11.239,312.3,-0.72513,3.6835,16.036,0.071238,-0.11082,-0.34247,-0.10324,-0.03248,-0.01102,1.25,1.25,1.25,1.25,0,0,0,0,0,0
4342,2.8527,11.277,313.23,-0.72565,3.6805,16.044,0.070725,-0.11119,-0.3424,-0.10324,-0.03248,-0.01102,1.25,1.25,1.25,1.25,0,0,0,0,0,0
4344,2.751,11.312,314.14,-0.72208,3.6773,16.047,0.070319,-0.11156,-0.34225,-0.10324,-0.03248,-0.01102,1.25,1.25,1.25,1.25,0,0,0,0,0,0
4346,2.7748,11.552,313.66,-0.72123,3.6797,16.062,0.070157,-0.11184,-0.34212,-0.06322,-0.0899,-0.01276,1.25,1.25,1.25,1.25,0,0,0,0,0,0
4348,2.7915,11.764,313.2,-0.71771,3.677,16.047,0.070095,-0.11191,-0.34198,-0.06322,-0.0899,-0.01276,1.25,1.25,1.25,1.25,0,0,0,0,0,0
4350,2.8049,11.949,312.77,-0.72372,3.6754,16.049,0.069702,-0.11209,-0.34198,-0.06322,-0.0899,-0.01276,1.25,1.25,1.25,1.25,0,0,0,0,0,0
4352,2.816,12.111,312.36,-0.73088,3.6759,16.053,0.069487,-0.11211,-0.34207,-0.06322,-0.0899,-0.01276,1.25,1.25,1.25,1.25,0,0,0,0,0,0
4354,2.8228,12.253,311.97,-0.73177,3.6769,16.058,0.069542,-0.11195,-0.34222,-0.06322,-0.0899,-0.01276,1.25,1.25,1.25,1.25,0,0,0,0,0,0
4356,2.8239,12.378,311.6,-0.72703,3.6805,16.059,0.069854,-0.11176,-0.3423,-0.06322,-0.0899,-0.01276,1.25,1.25,1.25,1.25,0,0,0,0,0,0
4358,2.8219,12.488,311.25,-0.72724,3.6831,16.055,0.070019,-0.11166,-0.34241,-0.06322,-0.0899,-0.01276,1.25,1.25,1.25,1.25,0,0,0,0,0,0
4360,2.8198,12.582,310.92,-0.73569,3.6817,16.072,0.070425,-0.11132,-0.3424,-0.06322,-0.0899,-0.01276,1.25,1.25,1.25,1.25,0,0,0,0,0,0
4362,2.7091,12.566,311.01,-0.73526,3.6809,16.077,0.070792,-0.1111,-0.34238,-0.04756,-0.05278,-0.02117,1.25,1.25,1.25,1.25,0,0,0,0,0,0
4364,2.6098,12.553,311.1,-0.73148,3.6821,16.073,0.070908,-0.11095,-0.34233,-0.04756,-0.05278,-0.02117,1.25,1.25,1.25,1.25,0,0,0,0,0,0
4366,2.5213,12.544,311.17,-0.73012,3.6816,16.068,0.070712,-0.11096,-0.3423,-0.04756,-0.05278,-0.02117,1.25,1.25,1.25,1.25,0,0,0,0,0,0
4368,2.4422,12.537,311.25,-0.72807,3.6819,16.072,0.070498,-0.11104,-0.34234,-0.04756,-0.05278,-0.02117,1.25,1.25,1.25,1.25,0,0,0,0,0,0
4370,2.3733,12.532,311.32,-0.73135,3.684,16.071,0.070605,-0.11113,-0.34235,-0.04756,-0.05278,-0.02117,1.25,1.25,1.25,1.25,0,0,0,0,0,0
4372,2.3114,12.53,311.38,-0.72787,3.6849,16.062,0.070806,-0.11092,-0.34239,-0.04756,-0.05278,-0.02117,1.25,1.25,1.25,1.25,0,0,0,0,0,0
4374,2.2554,12.53,311.45,-0.72371,3.6851,16.056,0.070605,-0.11112,-0.34238,-0.04756,-0.05278,-0.02117,1.25,1.25,1.25,1.25,0,0,0,0,0,0
4376,2.204,12.533,311.51,-0.71748,3.6862,16.037,0.070511,-0.11147,-0.34227,-0.04756,-0.05278,-0.02117,1.25,1.25,1.25,1.25,0,0,0,0,0,0
4378,2.08,12.407,312.19,-0.7192,3.6858,16.052,0.07081,-0.11141,-0.34215,-0.07047,-0.03828,-0.01624,1.25,1.25,1.25,1.25,0,0,0,0,0,0
4380,1.9705,12.295,312.85,-0.72233,3.6885,16.061,0.070822,-0.11136,-0.34209,-0.07047,-0.03828,-0.01624,1.25,1.25,1.25,1.25,0,0,0,0,0,0
4382,1.8732,12.197,313.49,-0.72142,3.6917,16.065,0.070458,-0.11171,-0.34214,-0.07047,-0.03828,-0.01624,1.25,1.25,1.25,1.25,0,0,0,0,0,0
4384,1.7884,12.11,314.11,-0.72382,3.6909,16.061,0.070486,-0.11142,-0.34233,-0.07047,-0.03828,-0.01624,1.25,1.25,1.25,1.25,0,0,0,0,0,0
4386,1.7154,12.034,314.71,-0.72735,3.6886,16.051,0.070475,-0.11105,-0.34254,-0.07047,-0.03828,-0.01624,1.25,1.25,1.25,1.25,0,0,0,0,0,0
4388,1.6525,11.968,315.29,-0.7288,3.6842,16.042,0.070443,-0.11084,-0.34267,-0.07047,-0.03828,-0.01624,1.25,1.25,1.25,1.25,0,0,0,0,0,0
4390,1.6,11.912,315.85,-0.73319,3.683,16.022,0.070781,-0.1105,-0.34285,-0.07047,-0.03828,-0.01624,1.25,1.25,1.25,1.25,0,0,0,0,0,0
4392,1.5555,11.865,316.39,-0.73342,3.685,16.029,0.071303,-0.10999,-0.34296,-0.07047,-0.03828,-0.01624,1.25,1.25,1.25,1.25,0,0,0,0,0,0
4394,1.6167,11.971,316.33,-0.72937,3.6852,16.035,0.071836,-0.10962,-0.34292,-0.0551,-0.05249,-0.0087,1.25,1.25,1.25,1.25,0,0,0,0,0,0
4396,1.6721,12.068,316.28,-0.72878,3.6866,16.028,0.072321,-0.10934,-0.343,-0.0551,-0.05249,-0.0087,1.25,1.25,1.25,1.25,0,0,0,0,0,0
4398,1.7232,12.155,316.23,-0.73139,3.6857,16.028,0.073009,-0.10882,-0.34297,-0.0551,-0.05249,-0.0087,1.25,1.25,1.25,1.25,0,0,0,0,0,0
4400,1.77,12.234,316.19,-0.73292,3.6846,16.029,0.073093,-0.1085,-0.34285,-0.0551,-0.05249,-0.0087,1.25,1.25,1.25,1.25,0,0,0,0,0,0
4402,1.812,12.304,316.14,-0.73165,3.6836,16.033,0.073065,-0.10819,-0.3429,-0.0551,-0.05249,-0.0087,1.25,1.25,1.25,1.25,0,0,0,0,0,0
4404,1.8515,12.366,316.1,-0.7374,3.684,16.054,0.073163,-0.10804,-0.34292,-0.0551,-0.05249,-0.0087,1.25,1.25,1.25,1.25,0,0,0,0,0,0
4406,1.8864,12.421,316.07,-0.73535,3.6819,16.064,0.073288,-0.10799,-0.3429,-0.0551,-0.05249,-0.0087,1.25,1.25,1.25,1.25,0,0,0,0,0,0
4408,1.9201,12.47,316.03,-0.74159,3.6791,16.053,0.073668,-0.10781,-0.34296,-0.0551,-0.05249,-0.0087,1.25,1.25,1.25,1.25,0,0,0,0,0,0
4410,2.1192,12.664,315.45,-0.73837,3.6777,16.037,0.073658,-0.10777,-0.34292,-0.04437,-0.06641,-0.02001,1.25,1.25,1.25,1.25,0,0,0,0,0,0
4412,2.285,12.824,314.9,-0.73609,3.6776,16.047,0.073529,-0.10782,-0.34301,-0.04437,-0.06641,-0.02001,1.25,1.25,1.25,1.25,0,0,0,0,0,0
4414,2.4223,12.956,314.39,-0.73519,3.6768,16.061,0.073727,-0.10786,-0.3431,-0.04437,-0.06641,-0.02001,1.25,1.25,1.25,1.25,0,0,0,0,0,0
4416,2.5362,13.064,313.9,-0.73735,3.6763,16.057,0.073494,-0.10812,-0.3431,-0.04437,-0.06641,-0.02001,1.25,1.25,1.25,1.25,0,0,0,0,0,0
4418,2.629,13.151,313.44,-0.73727,3.6742,16.059,0.073428,-0.10818,-0.34308,-0.04437,-0.06641,-0.02001,1.25,1.25,1.25,1.25,0,0,0,0,0,0
4420,2.702,13.22,313,-0.73311,3.6746,16.059,0.073289,-0.10816,-0.34306,-0.04437,-0.06641,-0.02001,1.25,1.25,1.25,1.25,0,0,0,0,0,0
4422,2.761,13.274,312.59,-0.73658,3.675,16.076,0.073574,-0.10768,-0.34313,-0.04437,-0.06641,-0.02001,1.25,1.25,1.25,1.25,0,0,0,0,0,0
4424,2.8065,13.314,312.2,-0.73613,3.6709,16.08,0.073794,-0.10733,-0.34319,-0.04437,-0.06641,-0.02001,1.25,1.25,1.25,1.25,0,0,0,0,0,0
4426,2.7677,13.284,312.08,-0.73747,3.6658,16.089,0.073618,-0.10716,-0.34318,-0.04872,-0.05742,-0.00899,1.25,1.25,1.25,1.25,0,0,0,0,0,0
4428,2.7326,13.257,311.97,-0.74016,3.6685,16.095,0.073527,-0.10709,-0.34316,-0.04872,-0.05742,-0.00899,1.25,1.25,1.25,1.25,0,0,0,0,0,0
4430,2.6994,13.233,311.86,-0.7381,3.6727,16.091,0.07402,-0.10677,-0.34309,-0.04872,-0.05742,-0.00899,1.25,1.25,1.25,1.25,0,0,0,0,0,0
4432,2.6682,13.212,311.76,-0.73648,3.6704,16.085,0.074555,-0.10646,-0.343,-0.04872,-0.05742,-0.00899,1.25,1.25,1.25,1.25,0,0,0,0,0,0
4434,2.6366,13.193,311.66,-0.72858,3.6736,16.083,0.075219,-0.10613,-0.34287,-0.04872,-0.05742,-0.00899,1.25,1.25,1.25,1.25,0,0,0,0,0,0
4435,2.6216,13.184,311.61,-0.72794,3.6762,16.089,0.075359,-0.10604,-0.34285,-0.04872,-0.05742,-0.00899,1.25,1.25,1.25,1.25,0,0,0,0,0,0
4436,2.6067,13.176,311.57,-0.7273,3.6789,16.096,0.0755,-0.10596,-0.34282,-0.04872,-0.05742,-0.00899,1.25,1.25,1.25,1.25,0,0,0,0,0,0
4438,2.5767,13.162,311.48,-0.72057,3.6852,16.099,0.075509,-0.1057,-0.34289,-0.04872,-0.05742,-0.00899,1.25,1.25,1.25,1.25,0,0,0,0,0,0
4440,2.5479,13.151,311.39,-0.71812,3.6929,16.108,0.07571,-0.1056,-0.34294,-0.04872,-0.05742,-0.00899,1.25,1.25,1.25,1.25,0,0,0,0,0,0
4442,2.4127,12.989,312.12,-0.7201,3.6952,16.098,0.07562,-0.10563,-0.343,-0.06989,-0.03509,-0.01363,1.25,1.25,1.25,1.25,0,0,0,0,0,0
4444,2.2912,12.844,312.84,-0.71858,3.6946,16.085,0.075442,-0.10585,-0.34308,-0.06989,-0.03509,-0.01363,1.25,1.25,1.25,1.25,0,0,0,0,0,0
4446,2.1833,12.714,313.53,-0.72146,3.6958,16.077,0.075416,-0.10595,-0.34308,-0.06989,-0.03509,-0.01363,1.25,1.25,1.25,1.25,0,0,0,0,0,0
4448,2.0876,12.6,314.2,-0.72249,3.6959,16.056,0.075066,-0.10607,-0.34301,-0.06989,-0.03509,-0.01363,1.25,1.25,1.25,1.25,0,0,0,0,0,0
4450,2.0028,12.497,314.85,-0.72269,3.6922,16.051,0.074539,-0.1063,-0.34299,-0.06989,-0.03509,-0.01363,1.25,1.25,1.25,1.25,0,0,0,0,0,0
4452,1.9278,12.406,315.47,-0.72255,3.6922,16.048,0.074214,-0.10644,-0.34289,-0.06989,-0.03509,-0.01363,1.25,1.25,1.25,1.25,0,0,0,0,0,0
4454,1.8638,12.326,316.08,-0.72975,3.6952,16.055,0.074207,-0.10656,-0.34271,-0.06989,-0.03509,-0.01363,1.25,1.25,1.25,1.25,0,0,0,0,0,0
4456,1.8063,12.256,316.67,-0.72328,3.6953,16.044,0.073897,-0.10683,-0.34256,-0.06989,-0.03509,-0.01363,1.25,1.25,1.25,1.25,0,0,0,0,0,0
4458,2.3183,12.681,315.31,-0.71627,3.7015,16.041,0.073689,-0.10708,-0.34246,-0.02233,-0.0551,-0.01421,1.25,1.25,1.25,1.25,0,0,0,0,0,0
4460,2.7424,13.032,314.02,-0.71652,3.7062,16.043,0.07373,-0.10701,-0.34246,-0.02233,-0.0551,-0.01421,1.25,1.25,1.25,1.25,0,0,0,0,0,0
4462,3.0852,13.316,312.81,-0.71246,3.7094,16.027,0.073673,-0.107,-0.34246,-0.02233,-0.0551,-0.01421,1.25,1.25,1.25,1.25,0,0,0,0,0,0
4464,3.3574,13.543,311.67,-0.71096,3.7125,16.019,0.073574,-0.10721,-0.3425,-0.02233,-0.0551,-0.01421,1.25,1.25,1.25,1.25,0,0,0,0,0,0
4466,3.5691,13.721,310.59,-0.71102,3.7157,16.014,0.073189,-0.1075,-0.34256,-0.02233,-0.0551,-0.01421,1.25,1.25,1.25,1.25,0,0,0,0,0,0
4468,3.7293,13.855,309.59,-0.71048,3.7146,16.005,0.073202,-0.1073,-0.3427,-0.02233,-0.0551,-0.01421,1.25,1.25,1.25,1.25,0,0,0,0,0,0
4470,3.844,13.953,308.64,-0.70548,3.7118,15.998,0.073231,-0.10721,-0.34286,-0.02233,-0.0551,-0.01421,1.25,1.25,1.25,1.25,0,0,0,0,0,0
4472,3.9226,14.021,307.76,-0.70522,3.7108,16.001,0.07303,-0.10748,-0.34295,-0.02233,-0.0551,-0.01421,1.25,1.25,1.25,1.25,0,0,0,0,0,0
4474,3.6553,13.815,308.24,-0.71204,3.7127,15.998,0.07273,-0.10783,-0.34306,-0.06496,-0.05423,-0.01798,1.25,1.25,1.25,1.25,0,0,0,0,0,0
4476,3.4126,13.631,308.7,-0.70698,3.7114,16,0.07268,-0.10774,-0.34314,-0.06496,-0.05423,-0.01798,1.25,1.25,1.25,1.25,0,0,0,0,0,0
4478,3.1941,13.466,309.14,-0.70748,3.7128,16.017,0.072742,-0.1076,-0.34316,-0.06496,-0.05423,-0.01798,1.25,1.25,1.25,1.25,0,0,0,0,0,0
4480,2.9983,13.319,309.57,-0.70935,3.7099,16.009,0.072404,-0.10787,-0.34307,-0.06496,-0.05423,-0.01798,1.25,1.25,1.25,1.25,0,0,0,0,0,0
4482,2.8247,13.186,309.98,-0.71592,3.7052,16.006,0.072331,-0.10791,-0.34313,-0.06496,-0.05423,-0.01798,1.25,1.25,1.25,1.25,0,0,0,0,0,0
4484,2.6689,13.069,310.37,-0.71419,3.704,16,0.072547,-0.10803,-0.343,-0.06496,-0.05423,-0.01798,1.25,1.25,1.25,1.25,0,0,0,0,0,0
4486,2.5282,12.966,310.75,-0.70908,3.7048,16,0.072663,-0.10823,-0.34288,-0.06496,-0.05423,-0.01798,1.25,1.25,1.25,1.25,0,0,0,0,0,0
4488,2.403,12.875,311.11,-0.70945,3.7043,15.999,0.07274,-0.10823,-0.34286,-0.06496,-0.05423,-0.01798,1.25,1.25,1.25,1.25,0,0,0,0,0,0
4490,2.3254,12.837,311.33,-0.70533,3.7022,16.014,0.072999,-0.10817,-0.34276,-0.058,-0.05365,-0.01276,1.25,1.25,1.25,1.25,0,0,0,0,0,0
4492,2.2569,12.804,311.55,-0.70831,3.7062,16.032,0.072707,-0.1084,-0.34261,-0.058,-0.05365,-0.01276,1.25,1.25,1.25,1.25,0,0,0,0,0,0
4494,2.1947,12.776,311.75,-0.70363,3.7078,16.031,0.072488,-0.10854,-0.34262,-0.058,-0.05365,-0.01276,1.25,1.25,1.25,1.25,0,0,0,0,0,0
4496,2.1396,12.752,311.95,-0.70336,3.7089,16.036,0.072738,-0.10855,-0.34256,-0.058,-0.05365,-0.01276,1.25,1.25,1.25,1.25,0,0,0,0,0,0
4498,2.0912,12.732,312.14,-0.70429,3.7092,16.031,0.072857,-0.10856,-0.3426,-0.058,-0.05365,-0.01276,1.25,1.25,1.25,1.25,0,0,0,0,0,0
4500,2.0496,12.715,312.32,-0.70671,3.704,16.024,0.072805,-0.10853,-0.34278,-0.058,-0.05365,-0.01276,1.25,1.25,1.25,1.25,0,0,0,0,0,0
4502,2.0136,12.699,312.5,-0.7082,3.7004,16.025,0.07279,-0.10847,-0.34288,-0.058,-0.05365,-0.01276,1.25,1.25,1.25,1.25,0,0,0,0,0,0
4504,1.9826,12.688,312.66,-0.70827,3.7002,16.011,0.073225,-0.10824,-0.34291,-0.058,-0.05365,-0.01276,1.25,1.25,1.25,1.25,0,0,0,0,0,0
4506,2.3213,12.94,311.55,-0.71355,3.6947,16.004,0.073555,-0.10815,-0.34289,-0.02726,-0.06293,-0.01131,1.25,1.25,1.25,1.25,0,0,0,0,0,0
4508,2.5988,13.143,310.51,-0.71221,3.6885,16.001,0.073392,-0.10834,-0.3429,-0.02726,-0.06293,-0.01131,1.25,1.25,1.25,1.25,0,0,0,0,0,0
4510,2.8221,13.302,309.53,-0.70927,3.6846,16.008,0.072981,-0.10841,-0.34303,-0.02726,-0.06293,-0.01131,1.25,1.25,1.25,1.25,0,0,0,0,0,0
4512,2.9998,13.426,308.61,-0.70911,3.6833,16.014,0.072815,-0.10838,-0.34299,-0.02726,-0.06293,-0.01131,1.25,1.25,1.25,1.25,0,0,0,0,0,0
4514,3.1379,13.52,307.75,-0.7077,3.6843,16.021,0.072837,-0.10854,-0.34292,-0.02726,-0.06293,-0.01131,1.25,1.25,1.25,1.25,0,0,0,0,0,0
4516,3.2438,13.59,306.94,-0.70924,3.6825,16.029,0.072991,-0.1087,-0.34273,-0.02726,-0.06293,-0.01131,1.25,1.25,1.25,1.25,0,0,0,0,0,0
4518,3.3229,13.639,306.18,-0.71059,3.6787,16.02,0.07343,-0.10859,-0.34261,-0.02726,-0.06293,-0.01131,1.25,1.25,1.25,1.25,0,0,0,0,0,0
4520,3.3799,13.673,305.47,-0.7135,3.6803,16.025,0.073719,-0.1085,-0.34253,-0.02726,-0.06293,-0.01131,1.25,1.25,1.25,1.25,0,0,0,0,0,0
4522,3.2443,13.589,305.61,-0.71955,3.6813,16.02,0.07364,-0.10853,-0.34244,-0.08584,-0.10237,-0.00899,1.25,1.25,1.25,1.25,0,0,0,0,0,0
4524,3.1222,13.512,305.75,-0.72063,3.6791,16.022,0.07321,-0.10883,-0.34237,-0.08584,-0.10237,-0.00899,1.25,1.25,1.25,1.25,0,0,0,0,0,0
4526,3.0119,13.444,305.88,-0.72141,3.6823,16.04,0.072788,-0.10918,-0.34237,-0.08584,-0.10237,-0.00899,1.25,1.25,1.25,1.25,0,0,0,0,0,0
4528,2.9123,13.382,306,-0.72144,3.6835,16.052,0.072206,-0.10945,-0.34245,-0.08584,-0.10237,-0.00899,1.25,1.25,1.25,1.25,0,0,0,0,0,0
4530,2.8243,13.326,306.12,-0.72675,3.6853,16.062,0.072152,-0.10941,-0.34255,-0.08584,-0.10237,-0.00899,1.25,1.25,1.25,1.25,0,0,0,0,0,0
4532,2.746,13.278,306.23,-0.72947,3.6873,16.05,0.072372,-0.1095,-0.34254,-0.08584,-0.10237,-0.00899,1.25,1.25,1.25,1.25,0,0,0,0,0,0
4534,2.6764,13.235,306.33,-0.73028,3.6827,16.033,0.07275,-0.10918,-0.34267,-0.08584,-0.10237,-0.00899,1.25,1.25,1.25,1.25,0,0,0,0,0,0
4536,2.6154,13.194,306.43,-0.73527,3.675,16.045,0.073164,-0.10893,-0.34267,-0.08584,-0.10237,-0.00899,1.25,1.25,1.25,1.25,0,0,0,0,0,0
4538,2.5019,13.099,306.75,-0.73836,3.6717,16.049,0.072942,-0.10896,-0.34265,-0.07337,-0.07424,-0.01711,1.25,1.25,1.25,1.25,0,0,0,0,0,0
4540,2.402,13.014,307.04,-0.74162,3.6705,16.061,0.072652,-0.10913,-0.34261,-0.07337,-0.07424,-0.01711,1.25,1.25,1.25,1.25,0,0,0,0,0,0
4542,2.3118,12.939,307.33,-0.73503,3.6696,16.052,0.072367,-0.10942,-0.34251,-0.07337,-0.07424,-0.01711,1.25,1.25,1.25,1.25,0,0,0,0,0,0
4544,2.2318,12.873,307.6,-0.73402,3.669,16.057,0.072118,-0.10959,-0.34258,-0.07337,-0.07424,-0.01711,1.25,1.25,1.25,1.25,0,0,0,0,0,0
4546,2.1625,12.815,307.87,-0.73813,3.6718,16.064,0.071734,-0.10974,-0.34261,-0.07337,-0.07424,-0.01711,1.25,1.25,1.25,1.25,0,0,0,0,0,0
4548,2.1013,12.766,308.12,-0.73566,3.6733,16.05,0.071491,-0.1099,-0.34256,-0.07337,-0.07424,-0.01711,1.25,1.25,1.25,1.25,0,0,0,0,0,0
4550,2.0481,12.725,308.36,-0.73655,3.6795,16.055,0.071784,-0.10966,-0.34254,-0.07337,-0.07424,-0.01711,1.25,1.25,1.25,1.25,0,0,0,0,0,0
4552,1.9995,12.69,308.59,-0.72865,3.6799,16.052,0.072108,-0.10956,-0.34255,-0.07337,-0.07424,-0.01711,1.25,1.25,1.25,1.25,0,0,0,0,0,0
4554,1.9064,12.608,308.78,-0.72954,3.6813,16.061,0.0723,-0.10945,-0.34264,-0.03973,-0.04524,-0.02523,1.25,1.25,1.25,1.25,0,0,0,0,0,0
4556,1.8264,12.538,308.96,-0.72552,3.6808,16.064,0.072657,-0.10909,-0.34264,-0.03973,-0.04524,-0.02523,1.25,1.25,1.25,1.25,0,0,0,0,0,0
4558,1.7596,12.48,309.13,-0.72729,3.6814,16.069,0.073125,-0.10906,-0.34252,-0.03973,-0.04524,-0.02523,1.25,1.25,1.25,1.25,0,0,0,0,0,0
4560,1.7041,12.431,309.29,-0.72822,3.6797,16.068,0.073494,-0.1092,-0.34236,-0.03973,-0.04524,-0.02523,1.25,1.25,1.25,1.25,0,0,0,0,0,0
4562,1.6582,12.391,309.45,-0.7276,3.6791,16.058,0.073752,-0.10908,-0.34234,-0.03973,-0.04524,-0.02523,1.25,1.25,1.25,1.25,0,0,0,0,0,0
4564,1.6201,12.357,309.59,-0.72621,3.6739,16.056,0.073887,-0.10894,-0.34242,-0.03973,-0.04524,-0.02523,1.25,1.25,1.25,1.25,0,0,0,0,0,0
4566,1.5887,12.329,309.73,-0.72446,3.6704,16.049,0.073849,-0.10883,-0.3425,-0.03973,-0.04524,-0.02523,1.25,1.25,1.25,1.25,0,0,0,0,0,0
4568,1.5639,12.305,309.87,-0.7256,3.6689,16.054,0.07396,-0.10867,-0.34267,-0.03973,-0.04524,-0.02523,1.25,1.25,1.25,1.25,0,0,0,0,0,0
4570,1.8312,12.515,309.42,-0.72954,3.6688,16.057,0.074275,-0.1083,-0.34281,-0.02407,-0.04321,-0.02059,1.25,1.25,1.25,1.25,0,0,0,0,0,0
4572,2.0511,12.682,309,-0.73403,3.6636,16.06,0.074767,-0.10786,-0.34285,-0.02407,-0.04321,-0.02059,1.25,1.25,1.25,1.25,0,0,0,0,0,0
4574,2.2314,12.817,308.61,-0.73939,3.6639,16.058,0.075338,-0.10736,-0.343,-0.02407,-0.04321,-0.02059,1.25,1.25,1.25,1.25,0,0,0,0,0,0
4576,2.3756,12.925,308.24,-0.73807,3.6626,16.046,0.075793,-0.10697,-0.34307,-0.02407,-0.04321,-0.02059,1.25,1.25,1.25,1.25,0,0,0,0,0,0
4577,2.4339,12.967,308.07,-0.74086,3.6624,16.051,0.075769,-0.1069,-0.34304,-0.02407,-0.04321,-0.02059,1.25,1.25,1.25,1.25,0,0,0,0,0,0
4578,2.4922,13.009,307.9,-0.74365,3.6623,16.057,0.075745,-0.10684,-0.34302,-0.02407,-0.04321,-0.02059,1.25,1.25,1.25,1.25,0,0,0,0,0,0
4580,2.5832,13.073,307.58,-0.7436,3.6611,16.066,0.075801,-0.10659,-0.34295,-0.02407,-0.04321,-0.02059,1.25,1.25,1.25,1.25,0,0,0,0,0,0
4582,2.6543,13.12,307.27,-0.74638,3.6621,16.073,0.075922,-0.1064,-0.34295,-0.02407,-0.04321,-0.02059,1.25,1.25,1.25,1.25,0,0,0,0,0,0
4584,2.7098,13.156,306.99,-0.75107,3.6646,16.079,0.076144,-0.10615,-0.34296,-0.02407,-0.04321,-0.02059,1.25,1.25,1.25,1.25,0,0,0,0,0,0
4586,2.3744,12.781,307.7,-0.74778,3.6699,16.072,0.076302,-0.10588,-0.34287,-0.05191,-0.03625,-0.02929,1.25,1.25,1.25,1.25,0,0,0,0,0,0
4588,2.0812,12.454,308.38,-0.74907,3.6731,16.066,0.076656,-0.10587,-0.34273,-0.05191,-0.03625,-0.02929,1.25,1.25,1.25,1.25,0,0,0,0,0,0
4590,1.8235,12.169,309.05,-0.74247,3.6741,16.059,0.076383,-0.10629,-0.34268,-0.05191,-0.03625,-0.02929,1.25,1.25,1.25,1.25,0,0,0,0,0,0
4592,1.5979,11.921,309.69,-0.73559,3.6739,16.07,0.076079,-0.10644,-0.34281,-0.05191,-0.03625,-0.02929,1.25,1.25,1.25,1.25,0,0,0,0,0,0
4594,1.4045,11.707,310.3,-0.73827,3.6722,16.069,0.075855,-0.1065,-0.34292,-0.05191,-0.03625,-0.02929,1.25,1.25,1.25,1.25,0,0,0,0,0,0
4596,1.2401,11.522,310.89,-0.74087,3.6701,16.068,0.075835,-0.10647,-0.34308,-0.05191,-0.03625,-0.02929,1.25,1.25,1.25,1.25,0,0,0,0,0,0
4598,1.1004,11.364,311.46,-0.73951,3.666,16.067,0.075491,-0.10654,-0.34319,-0.05191,-0.03625,-0.02929,1.25,1.25,1.25,1.25,0,0,0,0,0,0
4600,0.98467,11.228,312.01,-0.74478,3.6638,16.072,0.074977,-0.10683,-0.34327,-0.05191,-0.03625,-0.02929,1.25,1.25,1.25,1.25,0,0,0,0,0,0
4602,1.05,11.332,312.15,-0.74569,3.6588,16.077,0.074503,-0.10709,-0.34326,-0.04205,-0.0406,-0.01305,1.25,1.25,1.25,1.25,0,0,0,0,0,0
4604,1.1123,11.427,312.28,-0.75119,3.6597,16.077,0.074209,-0.10728,-0.34323,-0.04205,-0.0406,-0.01305,1.25,1.25,1.25,1.25,0,0,0,0,0,0
4606,1.1716,11.513,312.42,-0.75561,3.6581,16.08,0.074467,-0.10727,-0.34304,-0.04205,-0.0406,-0.01305,1.25,1.25,1.25,1.25,0,0,0,0,0,0
4608,1.2248,11.592,312.54,-0.74936,3.6577,16.08,0.074476,-0.10729,-0.3429,-0.04205,-0.0406,-0.01305,1.25,1.25,1.25,1.25,0,0,0,0,0,0
4610,1.2714,11.665,312.67,-0.73913,3.6543,16.06,0.074043,-0.10719,-0.34293,-0.04205,-0.0406,-0.01305,1.25,1.25,1.25,1.25,0,0,0,0,0,0
4612,1.3157,11.732,312.79,-0.74118,3.6547,16.06,0.074009,-0.10716,-0.34295,-0.04205,-0.0406,-0.01305,1.25,1.25,1.25,1.25,0,0,0,0,0,0
4614,1.3582,11.795,312.9,-0.74502,3.6595,16.064,0.074146,-0.10709,-0.34289,-0.04205,-0.0406,-0.01305,1.25,1.25,1.25,1.25,0,0,0,0,0,0
4616,1.3967,11.854,313.01,-0.74163,3.6637,16.073,0.074184,-0.1071,-0.34284,-0.04205,-0.0406,-0.01305,1.25,1.25,1.25,1.25,0,0,0,0,0,0
4618,1.6758,12.112,312.42,-0.74388,3.6669,16.104,0.074147,-0.10721,-0.34294,-0.04495,-0.07511,-0.02262,1.25,1.25,1.25,1.25,0,0,0,0,0,0
4620,1.9109,12.329,311.85,-0.74369,3.6681,16.121,0.073935,-0.10733,-0.34311,-0.04495,-0.07511,-0.02262,1.25,1.25,1.25,1.25,0,0,0,0,0,0
4622,2.1095,12.509,311.33,-0.74845,3.6675,16.136,0.073992,-0.10745,-0.34315,-0.04495,-0.07511,-0.02262,1.25,1.25,1.25,1.25,0,0,0,0,0,0
4624,2.2744,12.66,310.83,-0.74701,3.6692,16.126,0.074232,-0.10745,-0.34312,-0.04495,-0.07511,-0.02262,1.25,1.25,1.25,1.25,0,0,0,0,0,0
4626,2.4082,12.786,310.36,-0.7406,3.6695,16.118,0.074379,-0.10722,-0.34314,-0.04495,-0.07511,-0.02262,1.25,1.25,1.25,1.25,0,0,0,0,0,0
4628,2.5168,12.887,309.92,-0.73866,3.6631,16.125,0.074737,-0.10691,-0.34314,-0.04495,-0.07511,-0.02262,1.25,1.25,1.25,1.25,0,0,0,0,0,0
4630,2.6049,12.967,309.51,-0.73947,3.6585,16.123,0.074961,-0.10695,-0.34308,-0.04495,-0.07511,-0.02262,1.25,1.25,1.25,1.25,0,0,0,0,0,0
4632,2.6767,13.031,309.12,-0.74395,3.657,16.13,0.074732,-0.10702,-0.34304,-0.04495,-0.07511,-0.02262,1.25,1.25,1.25,1.25,0,0,0,0,0,0
4634,2.4699,12.821,309.62,-0.74607,3.655,16.135,0.075126,-0.10677,-0.34305,-0.05684,-0.04524,-0.02378,1.25,1.25,1.25,1.25,0,0,0,0,0,0
4636,2.2854,12.636,310.1,-0.7379,3.6547,16.14,0.075815,-0.10633,-0.34311,-0.05684,-0.04524,-0.02378,1.25,1.25,1.25,1.25,0,0,0,0,0,0
4638,2.1234,12.474,310.57,-0.73788,3.6547,16.143,0.076068,-0.1061,-0.34315,-0.05684,-0.04524,-0.02378,1.25,1.25,1.25,1.25,0,0,0,0,0,0
4640,1.9811,12.333,311.01,-0.73568,3.6557,16.143,0.075844,-0.10632,-0.34311,-0.05684,-0.04524,-0.02378,1.25,1.25,1.25,1.25,0,0,0,0,0,0
4642,1.8568,12.212,311.44,-0.73505,3.6635,16.149,0.07567,-0.1065,-0.34319,-0.05684,-0.04524,-0.02378,1.25,1.25,1.25,1.25,0,0,0,0,0,0
4644,1.7481,12.11,311.85,-0.73115,3.6664,16.129,0.075233,-0.10676,-0.3432,-0.05684,-0.04524,-0.02378,1.25,1.25,1.25,1.25,0,0,0,0,0,0
4646,1.6551,12.022,312.24,-0.73289,3.6623,16.119,0.0753,-0.10676,-0.34324,-0.05684,-0.04524,-0.02378,1.25,1.25,1.25,1.25,0,0,0,0,0,0
4648,1.576,11.948,312.62,-0.73466,3.6625,16.115,0.075129,-0.107,-0.34317,-0.05684,-0.04524,-0.02378,1.25,1.25,1.25,1.25,0,0,0,0,0,0
4650,1.5096,11.85,313.39,-0.73808,3.6658,16.107,0.074741,-0.10729,-0.34317,-0.07047,-0.03132,-0.01479,1.25,1.25,1.25,1.25,0,0,0,0,0,0
4652,1.4534,11.763,314.14,-0.74214,3.6673,16.13,0.074589,-0.10747,-0.34317,-0.07047,-0.03132,-0.01479,1.25,1.25,1.25,1.25,0,0,0,0,0,0
4654,1.4064,11.688,314.87,-0.7447,3.6708,16.143,0.074869,-0.10744,-0.34308,-0.07047,-0.03132,-0.01479,1.25,1.25,1.25,1.25,0,0,0,0,0,0
4656,1.3671,11.621,315.57,-0.74482,3.6678,16.154,0.074744,-0.10748,-0.34306,-0.07047,-0.03132,-0.01479,1.25,1.25,1.25,1.25,0,0,0,0,0,0
4658,1.3343,11.565,316.25,-0.74177,3.667,16.138,0.074482,-0.10772,-0.34309,-0.07047,-0.03132,-0.01479,1.25,1.25,1.25,1.25,0,0,0,0,0,0
4660,1.3067,11.517,316.91,-0.73636,3.668,16.13,0.074505,-0.10778,-0.34304,-0.07047,-0.03132,-0.01479,1.25,1.25,1.25,1.25,0,0,0,0,0,0
4662,1.2863,11.478,317.55,-0.74067,3.6684,16.126,0.074285,-0.10776,-0.34291,-0.07047,-0.03132,-0.01479,1.25,1.25,1.25,1.25,0,0,0,0,0,0
4664,1.2694,11.446,318.17,-0.73404,3.6662,16.122,0.074018,-0.10793,-0.34283,-0.07047,-0.03132,-0.01479,1.25,1.25,1.25,1.25,0,0,0,0,0,0
4666,2.0666,12.074,316.51,-0.73207,3.6671,16.123,0.074007,-0.10795,-0.34288,-0.02088,-0.06728,-0.02088,1.25,1.25,1.25,1.25,0,0,0,0,0,0
4668,2.745,12.604,314.91,-0.72865,3.6665,16.118,0.073723,-0.10818,-0.34285,-0.02088,-0.06728,-0.02088,1.25,1.25,1.25,1.25,0,0,0,0,0,0
4670,3.3052,13.035,313.37,-0.72597,3.6633,16.11,0.073372,-0.10844,-0.34281,-0.02088,-0.06728,-0.02088,1.25,1.25,1.25,1.25,0,0,0,0,0,0
4672,3.7517,13.379,311.9,-0.72034,3.6647,16.101,0.073035,-0.10859,-0.34283,-0.02088,-0.06728,-0.02088,1.25,1.25,1.25,1.25,0,0,0,0,0,0
4674,4.098,13.642,310.51,-0.72047,3.6669,16.113,0.072971,-0.10854,-0.3429,-0.02088,-0.06728,-0.02088,1.25,1.25,1.25,1.25,0,0,0,0,0,0
4676,4.3578,13.834,309.2,-0.72323,3.6685,16.134,0.07313,-0.10822,-0.34296,-0.02088,-0.06728,-0.02088,1.25,1.25,1.25,1.25,0,0,0,0,0,0
4678,4.545,13.972,307.97,-0.72665,3.6721,16.131,0.072975,-0.10811,-0.34288,-0.02088,-0.06728,-0.02088,1.25,1.25,1.25,1.25,0,0,0,0,0,0
4680,4.6713,14.065,306.82,-0.72832,3.6737,16.119,0.072669,-0.10814,-0.34284,-0.02088,-0.06728,-0.02088,1.25,1.25,1.25,1.25,0,0,0,0,0,0
4682,4.6556,14.088,306.03,-0.73304,3.6788,16.11,0.072989,-0.10785,-0.34294,-0.02001,-0.05423,-0.02117,1.25,1.25,1.25,1.25,0,0,0,0,0,0
4684,4.6203,14.095,305.28,-0.72992,3.6805,16.1,0.072889,-0.10782,-0.34305,-0.02001,-0.05423,-0.02117,1.25,1.25,1.25,1.25,0,0,0,0,0,0
4686,4.5714,14.088,304.58,-0.73018,3.6811,16.094,0.07305,-0.10783,-0.34302,-0.02001,-0.05423,-0.02117,1.25,1.25,1.25,1.25,0,0,0,0,0,0
4688,4.5118,14.067,303.92,-0.72905,3.6762,16.091,0.073155,-0.10775,-0.34299,-0.02001,-0.05423,-0.02117,1.25,1.25,1.25,1.25,0,0,0,0,0,0
4690,4.4468,14.039,303.3,-0.73322,3.6793,16.101,0.073317,-0.10745,-0.34302,-0.02001,-0.05423,-0.02117,1.25,1.25,1.25,1.25,0,0,0,0,0,0
4692,4.3746,14.007,302.71,-0.72983,3.6815,16.092,0.073152,-0.10756,-0.34308,-0.02001,-0.05423,-0.02117,1.25,1.25,1.25,1.25,0,0,0,0,0,0
4694,4.3001,13.97,302.15,-0.73254,3.6807,16.093,0.073056,-0.10777,-0.34307,-0.02001,-0.05423,-0.02117,1.25,1.25,1.25,1.25,0,0,0,0,0,0
4696,4.2244,13.931,301.62,-0.73398,3.679,16.08,0.073478,-0.10751,-0.34291,-0.02001,-0.05423,-0.02117,1.25,1.25,1.25,1.25,0,0,0,0,0,0
4698,3.9363,13.763,301.84,-0.73881,3.6823,16.078,0.07336,-0.1077,-0.34275,-0.05336,-0.07395,-0.02117,1.25,1.25,1.25,1.25,0,0,0,0,0,0
4700,3.6801,13.615,302.04,-0.73777,3.6847,16.091,0.073334,-0.10755,-0.34272,-0.05336,-0.07395,-0.02117,1.25,1.25,1.25,1.25,0,0,0,0,0,0
4702,3.4524,13.485,302.23,-0.7361,3.6815,16.086,0.07333,-0.10749,-0.34273,-0.05336,-0.07395,-0.02117,1.25,1.25,1.25,1.25,0,0,0,0,0,0
4704,3.2498,13.37,302.41,-0.73303,3.6786,16.086,0.073599,-0.10754,-0.34272,-0.05336,-0.07395,-0.02117,1.25,1.25,1.25,1.25,0,0,0,0,0,0
4706,3.0699,13.27,302.58,-0.72997,3.6765,16.063,0.073575,-0.10752,-0.34274,-0.05336,-0.07395,-0.02117,1.25,1.25,1.25,1.25,0,0,0,0,0,0
4708,2.9128,13.183,302.74,-0.73583,3.6791,16.08,0.073537,-0.10748,-0.34272,-0.05336,-0.07395,-0.02117,1.25,1.25,1.25,1.25,0,0,0,0,0,0
4710,2.774,13.108,302.89,-0.73527,3.6859,16.091,0.073801,-0.10718,-0.34281,-0.05336,-0.07395,-0.02117,1.25,1.25,1.25,1.25,0,0,0,0,0,0
4712,2.6496,13.044,303.03,-0.72886,3.6862,16.086,0.073647,-0.10709,-0.34295,-0.05336,-0.07395,-0.02117,1.25,1.25,1.25,1.25,0,0,0,0,0,0
4714,3.4279,13.367,301.61,-0.73482,3.6881,16.085,0.073224,-0.10737,-0.34302,-0.00696,-0.04553,-0.01972,1.25,1.25,1.25,1.25,0,0,0,0,0,0
4716,4.0163,13.606,300.26,-0.73818,3.6898,16.068,0.073097,-0.10744,-0.34316,-0.00696,-0.04553,-0.01972,1.25,1.25,1.25,1.25,0,0,0,0,0,0
4718,4.4369,13.77,299,-0.73907,3.6898,16.063,0.073209,-0.10757,-0.3431,-0.00696,-0.04553,-0.01972,1.25,1.25,1.25,1.25,0,0,0,0,0,0
4720,4.7174,13.864,297.82,-0.73545,3.673,16.053,0.073333,-0.1078,-0.34303,-0.00696,-0.04553,-0.01972,1.25,1.25,1.25,1.25,0,0,0,0,0,0
4722,4.8875,13.908,296.73,-0.73252,3.6685,16.058,0.073204,-0.10822,-0.34289,-0.00696,-0.04553,-0.01972,1.25,1.25,1.25,1.25,0,0,0,0,0,0
4724,4.976,13.919,295.71,-0.73284,3.6681,16.067,0.073564,-0.10819,-0.34275,-0.00696,-0.04553,-0.01972,1.25,1.25,1.25,1.25,0,0,0,0,0,0
4726,5.0046,13.91,294.76,-0.73395,3.6724,16.072,0.073622,-0.10814,-0.34261,-0.00696,-0.04553,-0.01972,1.25,1.25,1.25,1.25,0,0,0,0,0,0
4728,4.9878,13.885,293.88,-0.73192,3.6725,16.073,0.073339,-0.10839,-0.34258,-0.00696,-0.04553,-0.01972,1.25,1.25,1.25,1.25,0,0,0,0,0,0
4730,4.6005,13.739,293.91,-0.72777,3.6714,16.062,0.073069,-0.10839,-0.34269,-0.02552,-0.06032,-0.01885,1.25,1.25,1.25,1.25,0,0,0,0,0,0
4732,4.2624,13.614,293.93,-0.72334,3.6698,16.052,0.072894,-0.1086,-0.34277,-0.02552,-0.06032,-0.01885,1.25,1.25,1.25,1.25,0,0,0,0,0,0
4734,3.9708,13.507,293.94,-0.7284,3.6692,16.058,0.072826,-0.10877,-0.34281,-0.02552,-0.06032,-0.01885,1.25,1.25,1.25,1.25,0,0,0,0,0,0
4736,3.7191,13.414,293.95,-0.73187,3.6686,16.065,0.07281,-0.10881,-0.34289,-0.02552,-0.06032,-0.01885,1.25,1.25,1.25,1.25,0,0,0,0,0,0
4738,3.5019,13.334,293.95,-0.73478,3.6697,16.071,0.073194,-0.10867,-0.34288,-0.02552,-0.06032,-0.01885,1.25,1.25,1.25,1.25,0,0,0,0,0,0
4740,3.3114,13.265,293.95,-0.7299,3.6654,16.067,0.073156,-0.10869,-0.34285,-0.02552,-0.06032,-0.01885,1.25,1.25,1.25,1.25,0,0,0,0,0,0
4742,3.1475,13.204,293.94,-0.73431,3.6659,16.08,0.072927,-0.10882,-0.34282,-0.02552,-0.06032,-0.01885,1.25,1.25,1.25,1.25,0,0,0,0,0,0
4744,3.0067,13.152,293.93,-0.73828,3.6682,16.089,0.072792,-0.10883,-0.34291,-0.02552,-0.06032,-0.01885,1.25,1.25,1.25,1.25,0,0,0,0,0,0
4746,2.7966,13.049,294.38,-0.73554,3.6702,16.097,0.073065,-0.10873,-0.34298,-0.04843,-0.06815,-0.01305,1.25,1.25,1.25,1.25,0,0,0,0,0,0
4748,2.6093,12.958,294.8,-0.73215,3.67,16.107,0.073428,-0.10855,-0.3429,-0.04843,-0.06815,-0.01305,1.25,1.25,1.25,1.25,0,0,0,0,0,0
4750,2.4426,12.879,295.22,-0.72786,3.6729,16.101,0.073629,-0.10835,-0.34281,-0.04843,-0.06815,-0.01305,1.25,1.25,1.25,1.25,0,0,0,0,0,0
4752,2.2959,12.811,295.61,-0.72831,3.672,16.089,0.073552,-0.10863,-0.34272,-0.04843,-0.06815,-0.01305,1.25,1.25,1.25,1.25,0,0,0,0,0,0
4754,2.1684,12.752,295.99,-0.73172,3.6707,16.073,0.073101,-0.10893,-0.34257,-0.04843,-0.06815,-0.01305,1.25,1.25,1.25,1.25,0,0,0,0,0,0
4756,2.0556,12.7,296.35,-0.72797,3.6688,16.079,0.072571,-0.10916,-0.34258,-0.04843,-0.06815,-0.01305,1.25,1.25,1.25,1.25,0,0,0,0,0,0
4758,1.9559,12.654,296.7,-0.72354,3.6678,16.082,0.072119,-0.10937,-0.34262,-0.04843,-0.06815,-0.01305,1.25,1.25,1.25,1.25,0,0,0,0,0,0
4760,1.8696,12.615,297.03,-0.72384,3.6674,16.084,0.071993,-0.10953,-0.34262,-0.04843,-0.06815,-0.01305,1.25,1.25,1.25,1.25,0,0,0,0,0,0
4762,1.6807,12.405,298.19,-0.72955,3.671,16.079,0.071995,-0.10952,-0.34259,-0.09338,-0.04147,-0.01943,1.25,1.25,1.25,1.25,0,0,0,0,0,0
4764,1.5118,12.213,299.31,-0.73272,3.6731,16.084,0.072071,-0.10955,-0.34257,-0.09338,-0.04147,-0.01943,1.25,1.25,1.25,1.25,0,0,0,0,0,0
4766,1.3617,12.037,300.42,-0.73515,3.6712,16.09,0.072087,-0.10947,-0.34263,-0.09338,-0.04147,-0.01943,1.25,1.25,1.25,1.25,0,0,0,0,0,0
4768,1.2293,11.878,301.49,-0.73678,3.6696,16.078,0.07247,-0.10921,-0.34286,-0.09338,-0.04147,-0.01943,1.25,1.25,1.25,1.25,0,0,0,0,0,0
4770,1.1135,11.734,302.55,-0.73949,3.6679,16.07,0.072876,-0.10881,-0.34311,-0.09338,-0.04147,-0.01943,1.25,1.25,1.25,1.25,0,0,0,0,0,0
4772,1.0137,11.605,303.57,-0.74305,3.6679,16.056,0.073176,-0.1084,-0.34324,-0.09338,-0.04147,-0.01943,1.25,1.25,1.25,1.25,0,0,0,0,0,0
4774,0.9277,11.49,304.57,-0.744,3.6685,16.062,0.0735,-0.1083,-0.34334,-0.09338,-0.04147,-0.01943,1.25,1.25,1.25,1.25,0,0,0,0,0,0
4776,0.85496,11.388,305.55,-0.74651,3.6689,16.069,0.073899,-0.10794,-0.34341,-0.09338,-0.04147,-0.01943,1.25,1.25,1.25,1.25,0,0,0,0,0,0
4778,0.84638,11.41,305.91,-0.75014,3.6664,16.063,0.074222,-0.10766,-0.34337,-0.04263,-0.04292,-0.01769,1.25,1.25,1.25,1.25,0,0,0,0,0,0
4779,0.84492,11.421,306.08,-0.75052,3.667,16.065,0.074089,-0.10773,-0.34329,-0.04263,-0.04292,-0.01769,1.25,1.25,1.25,1.25,0,0,0,0,0,0
4780,0.84345,11.433,306.25,-0.7509,3.6677,16.068,0.073956,-0.1078,-0.34321,-0.04263,-0.04292,-0.01769,1.25,1.25,1.25,1.25,0,0,0,0,0,0
4782,0.84414,11.456,306.58,-0.74742,3.6663,16.074,0.073696,-0.10793,-0.34313,-0.04263,-0.04292,-0.01769,1.25,1.25,1.25,1.25,0,0,0,0,0,0
4784,0.84951,11.48,306.9,-0.74832,3.6672,16.068,0.073352,-0.10814,-0.34309,-0.04263,-0.04292,-0.01769,1.25,1.25,1.25,1.25,0,0,0,0,0,0
4786,0.85831,11.505,307.21,-0.74781,3.6653,16.075,0.073237,-0.1083,-0.34303,-0.04263,-0.04292,-0.01769,1.25,1.25,1.25,1.25,0,0,0,0,0,0
4788,0.87021,11.53,307.51,-0.74645,3.6635,16.063,0.073531,-0.10818,-0.34296,-0.04263,-0.04292,-0.01769,1.25,1.25,1.25,1.25,0,0,0,0,0,0
4790,0.88626,11.555,307.8,-0.75154,3.6665,16.083,0.073648,-0.10831,-0.34292,-0.04263,-0.04292,-0.01769,1.25,1.25,1.25,1.25,0,0,0,0,0,0
4792,0.90585,11.582,308.08,-0.75549,3.669,16.088,0.073837,-0.10826,-0.34284,-0.04263,-0.04292,-0.01769,1.25,1.25,1.25,1.25,0,0,0,0,0,0
4794,0.89815,11.551,308.83,-0.75597,3.6654,16.084,0.07363,-0.10831,-0.34275,-0.08381,-0.04495,-0.01276,1.25,1.25,1.25,1.25,0,0,0,0,0,0
4796,0.89622,11.527,309.57,-0.75821,3.6663,16.08,0.073458,-0.10824,-0.3429,-0.08381,-0.04495,-0.01276,1.25,1.25,1.25,1.25,0,0,0,0,0,0
4798,0.89829,11.509,310.28,-0.75506,3.6685,16.065,0.07368,-0.10801,-0.34302,-0.08381,-0.04495,-0.01276,1.25,1.25,1.25,1.25,0,0,0,0,0,0
4800,0.90522,11.497,310.98,-0.75733,3.6665,16.062,0.073957,-0.10775,-0.34305,-0.08381,-0.04495,-0.01276,1.25,1.25,1.25,1.25,0,0,0,0,0,0
4802,0.9167,11.488,311.65,-0.76092,3.664,16.059,0.073991,-0.10793,-0.34308,-0.08381,-0.04495,-0.01276,1.25,1.25,1.25,1.25,0,0,0,0,0,0
4804,0.93044,11.483,312.3,-0.75802,3.6666,16.064,0.073782,-0.10817,-0.34306,-0.08381,-0.04495,-0.01276,1.25,1.25,1.25,1.25,0,0,0,0,0,0
4806,0.94584,11.483,312.93,-0.75368,3.6678,16.058,0.073363,-0.10844,-0.34303,-0.08381,-0.04495,-0.01276,1.25,1.25,1.25,1.25,0,0,0,0,0,0
4808,0.96538,11.485,313.55,-0.75988,3.665,16.065,0.073255,-0.10851,-0.34306,-0.08381,-0.04495,-0.01276,1.25,1.25,1.25,1.25,0,0,0,0,0,0
4810,1.0476,11.575,313.65,-0.76387,3.6689,16.068,0.073445,-0.10829,-0.34294,-0.03683,-0.03538,-0.01305,1.25,1.25,1.25,1.25,0,0,0,0,0,0
4812,1.122,11.656,313.74,-0.7599,3.6678,16.061,0.073549,-0.10824,-0.34289,-0.03683,-0.03538,-0.01305,1.25,1.25,1.25,1.25,0,0,0,0,0,0
4814,1.1899,11.731,313.83,-0.75867,3.6671,16.051,0.07329,-0.10831,-0.34287,-0.03683,-0.03538,-0.01305,1.25,1.25,1.25,1.25,0,0,0,0,0,0
4816,1.2515,11.802,313.92,-0.75504,3.672,16.037,0.073597,-0.10807,-0.34288,-0.03683,-0.03538,-0.01305,1.25,1.25,1.25,1.25,0,0,0,0,0,0
4818,1.3075,11.868,314.01,-0.75237,3.6721,16.027,0.073949,-0.10786,-0.34285,-0.03683,-0.03538,-0.01305,1.25,1.25,1.25,1.25,0,0,0,0,0,0
4820,1.3601,11.929,314.1,-0.75471,3.6747,16.018,0.074087,-0.10761,-0.3429,-0.03683,-0.03538,-0.01305,1.25,1.25,1.25,1.25,0,0,0,0,0,0
4822,1.4068,11.986,314.18,-0.74961,3.678,16.024,0.073956,-0.10763,-0.34289,-0.03683,-0.03538,-0.01305,1.25,1.25,1.25,1.25,0,0,0,0,0,0
4824,1.4497,12.037,314.27,-0.74939,3.6773,16.03,0.07349,-0.10783,-0.343,-0.03683,-0.03538,-0.01305,1.25,1.25,1.25,1.25,0,0,0,0,0,0
4826,2.2942,12.622,312.92,-0.74806,3.6787,16.033,0.073298,-0.10782,-0.34314,-0.01363,-0.04321,-0.01972,1.25,1.25,1.25,1.25,0,0,0,0,0,0
4828,2.99,13.096,311.63,-0.75607,3.6809,16.038,0.073066,-0.1078,-0.34324,-0.01363,-0.04321,-0.01972,1.25,1.25,1.25,1.25,0,0,0,0,0,0
4830,3.5425,13.469,310.41,-0.7591,3.6813,16.024,0.073275,-0.1076,-0.34333,-0.01363,-0.04321,-0.01972,1.25,1.25,1.25,1.25,0,0,0,0,0,0
4832,3.9645,13.752,309.25,-0.7577,3.6801,16.005,0.07356,-0.10738,-0.3434,-0.01363,-0.04321,-0.01972,1.25,1.25,1.25,1.25,0,0,0,0,0,0
4834,4.272,13.955,308.17,-0.75152,3.6748,15.994,0.073507,-0.10755,-0.34334,-0.01363,-0.04321,-0.01972,1.25,1.25,1.25,1.25,0,0,0,0,0,0
4836,4.4877,14.095,307.15,-0.75053,3.6741,15.989,0.073263,-0.10747,-0.34327,-0.01363,-0.04321,-0.01972,1.25,1.25,1.25,1.25,0,0,0,0,0,0
4838,4.6305,14.183,306.2,-0.75148,3.6746,16.003,0.073143,-0.10731,-0.34325,-0.01363,-0.04321,-0.01972,1.25,1.25,1.25,1.25,0,0,0,0,0,0
4840,4.7161,14.234,305.31,-0.75279,3.677,16.004,0.072995,-0.10733,-0.34328,-0.01363,-0.04321,-0.01972,1.25,1.25,1.25,1.25,0,0,0,0,0,0
4842,4.4217,13.997,306.16,-0.75051,3.6762,16.003,0.072947,-0.10711,-0.34341,-0.06641,-0.03654,-0.01189,1.25,1.25,1.25,1.25,0,0,0,0,0,0
4844,4.1506,13.78,306.98,-0.74849,3.675,15.998,0.073173,-0.10698,-0.3435,-0.06641,-0.03654,-0.01189,1.25,1.25,1.25,1.25,0,0,0,0,0,0
4846,3.9025,13.581,307.79,-0.75041,3.6728,15.986,0.073401,-0.10682,-0.3436,-0.06641,-0.03654,-0.01189,1.25,1.25,1.25,1.25,0,0,0,0,0,0
4848,3.6761,13.399,308.57,-0.75374,3.6704,15.997,0.073919,-0.10663,-0.34364,-0.06641,-0.03654,-0.01189,1.25,1.25,1.25,1.25,0,0,0,0,0,0
4850,3.4683,13.234,309.32,-0.7511,3.6753,16.006,0.074294,-0.1067,-0.34358,-0.06641,-0.03654,-0.01189,1.25,1.25,1.25,1.25,0,0,0,0,0,0
4852,3.2788,13.085,310.06,-0.75111,3.6751,16.003,0.074484,-0.1066,-0.34361,-0.06641,-0.03654,-0.01189,1.25,1.25,1.25,1.25,0,0,0,0,0,0
4854,3.1072,12.95,310.77,-0.75415,3.6793,16.012,0.074566,-0.10646,-0.34371,-0.06641,-0.03654,-0.01189,1.25,1.25,1.25,1.25,0,0,0,0,0,0
4856,2.9512,12.829,311.45,-0.75387,3.6812,16.009,0.07464,-0.10646,-0.34365,-0.06641,-0.03654,-0.01189,1.25,1.25,1.25,1.25,0,0,0,0,0,0
4858,2.8372,12.754,312.12,-0.7567,3.6821,16.018,0.074402,-0.10664,-0.34357,-0.08236,-0.04437,-0.00986,1.25,1.25,1.25,1.25,0,0,0,0,0,0
4860,2.7339,12.687,312.76,-0.75781,3.682,16.022,0.07456,-0.1068,-0.34343,-0.08236,-0.04437,-0.00986,1.25,1.25,1.25,1.25,0,0,0,0,0,0
4862,2.6389,12.626,313.38,-0.75288,3.68,16.033,0.074818,-0.10686,-0.34338,-0.08236,-0.04437,-0.00986,1.25,1.25,1.25,1.25,0,0,0,0,0,0
4864,2.5539,12.571,313.98,-0.75653,3.6797,16.053,0.075122,-0.10685,-0.34327,-0.08236,-0.04437,-0.00986,1.25,1.25,1.25,1.25,0,0,0,0,0,0
4866,2.4772,12.521,314.57,-0.75646,3.6778,16.059,0.075161,-0.10684,-0.34316,-0.08236,-0.04437,-0.00986,1.25,1.25,1.25,1.25,0,0,0,0,0,0
4868,2.4086,12.475,315.13,-0.75764,3.672,16.068,0.075385,-0.10685,-0.34302,-0.08236,-0.04437,-0.00986,1.25,1.25,1.25,1.25,0,0,0,0,0,0
4870,2.3473,12.433,315.67,-0.75786,3.6656,16.066,0.07564,-0.10682,-0.34288,-0.08236,-0.04437,-0.00986,1.25,1.25,1.25,1.25,0,0,0,0,0,0
4872,2.2928,12.396,316.2,-0.7584,3.6601,16.062,0.075654,-0.10697,-0.34275,-0.08236,-0.04437,-0.00986,1.25,1.25,1.25,1.25,0,0,0,0,0,0
4874,2.8367,12.722,313.89,-0.75979,3.6594,16.053,0.075594,-0.10692,-0.34261,-0.00812,-0.07337,-0.00319,1.25,1.25,1.25,1.25,0,0,0,0,0,0
4876,3.3166,13,311.6,-0.75587,3.6569,16.044,0.075505,-0.10698,-0.3425,-0.00812,-0.07337,-0.00319,1.25,1.25,1.25,1.25,0,0,0,0,0,0
4878,3.7289,13.228,309.33,-0.75561,3.6614,16.063,0.075389,-0.10714,-0.34249,-0.00812,-0.07337,-0.00319,1.25,1.25,1.25,1.25,0,0,0,0,0,0
4880,4.0695,13.409,307.11,-0.75114,3.6653,16.067,0.075032,-0.10727,-0.34255,-0.00812,-0.07337,-0.00319,1.25,1.25,1.25,1.25,0,0,0,0,0,0
4882,4.3434,13.543,304.95,-0.75649,3.6654,16.07,0.074617,-0.10759,-0.34255,-0.00812,-0.07337,-0.00319,1.25,1.25,1.25,1.25,0,0,0,0,0,0
4884,4.5479,13.636,302.87,-0.75153,3.6642,16.068,0.074497,-0.10771,-0.34259,-0.00812,-0.07337,-0.00319,1.25,1.25,1.25,1.25,0,0,0,0,0,0
4886,4.6896,13.697,300.89,-0.74862,3.6673,16.057,0.074417,-0.10764,-0.34275,-0.00812,-0.07337,-0.00319,1.25,1.25,1.25,1.25,0,0,0,0,0,0
4888,4.7753,13.73,299.02,-0.74514,3.6684,16.052,0.074553,-0.10745,-0.34294,-0.00812,-0.07337,-0.00319,1.25,1.25,1.25,1.25,0,0,0,0,0,0
4890,4.4187,13.567,299.36,-0.75111,3.6717,16.061,0.074885,-0.10709,-0.34312,-0.04988,-0.06757,-0.01798,1.25,1.25,1.25,1.25,0,0,0,0,0,0
4892,4.1005,13.423,299.68,-0.75297,3.6729,16.062,0.07504,-0.10678,-0.34318,-0.04988,-0.06757,-0.01798,1.25,1.25,1.25,1.25,0,0,0,0,0,0
4894,3.8158,13.299,299.98,-0.74949,3.6732,16.04,0.07517,-0.10678,-0.34316,-0.04988,-0.06757,-0.01798,1.25,1.25,1.25,1.25,0,0,0,0,0,0
4896,3.5625,13.191,300.27,-0.74961,3.6745,16.026,0.075208,-0.10685,-0.34308,-0.04988,-0.06757,-0.01798,1.25,1.25,1.25,1.25,0,0,0,0,0,0
4898,3.3363,13.099,300.54,-0.74623,3.6773,16.013,0.074907,-0.10699,-0.34293,-0.04988,-0.06757,-0.01798,1.25,1.25,1.25,1.25,0,0,0,0,0,0
4900,3.1346,13.018,300.8,-0.7438,3.6751,16.009,0.074346,-0.10733,-0.34279,-0.04988,-0.06757,-0.01798,1.25,1.25,1.25,1.25,0,0,0,0,0,0
4902,2.9574,12.948,301.05,-0.74875,3.6792,16.023,0.073812,-0.10762,-0.34272,-0.04988,-0.06757,-0.01798,1.25,1.25,1.25,1.25,0,0,0,0,0,0
4904,2.7988,12.886,301.29,-0.74434,3.6794,16.038,0.073348,-0.10797,-0.34264,-0.04988,-0.06757,-0.01798,1.25,1.25,1.25,1.25,0,0,0,0,0,0
4906,2.6376,12.776,302.09,-0.74084,3.6787,16.049,0.07344,-0.10795,-0.34265,-0.05655,-0.03799,-0.00783,1.25,1.25,1.25,1.25,0,0,0,0,0,0
4908,2.4918,12.677,302.87,-0.7408,3.6798,16.048,0.073743,-0.10767,-0.34266,-0.05655,-0.03799,-0.00783,1.25,1.25,1.25,1.25,0,0,0,0,0,0
4910,2.3616,12.586,303.63,-0.74511,3.6762,16.046,0.073989,-0.10746,-0.34274,-0.05655,-0.03799,-0.00783,1.25,1.25,1.25,1.25,0,0,0,0,0,0
4912,2.244,12.505,304.36,-0.74271,3.6732,16.034,0.074097,-0.10753,-0.34282,-0.05655,-0.03799,-0.00783,1.25,1.25,1.25,1.25,0,0,0,0,0,0
4914,2.1391,12.432,305.08,-0.74414,3.6702,16.035,0.074394,-0.10749,-0.34283,-0.05655,-0.03799,-0.00783,1.25,1.25,1.25,1.25,0,0,0,0,0,0
4916,2.0455,12.365,305.77,-0.745,3.6658,16.051,0.074707,-0.10761,-0.34281,-0.05655,-0.03799,-0.00783,1.25,1.25,1.25,1.25,0,0,0,0,0,0
4918,1.9635,12.307,306.44,-0.74933,3.6696,16.059,0.074755,-0.10779,-0.34262,-0.05655,-0.03799,-0.00783,1.25,1.25,1.25,1.25,0,0,0,0,0,0
4920,1.8926,12.255,307.09,-0.75512,3.6711,16.066,0.074633,-0.10788,-0.3425,-0.05655,-0.03799,-0.00783,1.25,1.25,1.25,1.25,0,0,0,0,0,0
4922,1.8849,12.264,307.15,-0.75741,3.6687,16.066,0.074433,-0.10787,-0.34247,-0.05249,-0.047995,-0.01305,1.25,1.25,1.25,1.25,0,0,0,0,0,0
4923,1.8772,12.273,307.21,-0.7597,3.6663,16.067,0.074233,-0.10785,-0.34244,-0.04843,-0.058,-0.01827,1.25,1.25,1.25,1.25,0,0,0,0,0,0
4924,1.8654,12.29,307.32,-0.76118,3.6626,16.059,0.073731,-0.10806,-0.34234,-0.04843,-0.058,-0.01827,1.25,1.25,1.25,1.25,0,0,0,0,0,0
4926,1.8546,12.306,307.43,-0.75617,3.6617,16.054,0.07335,-0.10825,-0.34232,-0.04843,-0.058,-0.01827,1.25,1.25,1.25,1.25,0,0,0,0,0,0
4928,1.8455,12.322,307.54,-0.75419,3.6632,16.051,0.072896,-0.10842,-0.34228,-0.04843,-0.058,-0.01827,1.25,1.25,1.25,1.25,0,0,0,0,0,0
4929,1.8417,12.329,307.59,-0.75378,3.663,16.06,0.072589,-0.10862,-0.34221,-0.04843,-0.058,-0.01827,1.25,1.25,1.25,1.25,0,0,0,0,0,0
4930,1.8379,12.336,307.64,-0.75338,3.6629,16.07,0.072281,-0.10882,-0.34214,-0.04843,-0.058,-0.01827,1.25,1.25,1.25,1.25,0,0,0,0,0,0
4932,1.8308,12.348,307.73,-0.74963,3.6641,16.086,0.071813,-0.10903,-0.34215,-0.04843,-0.058,-0.01827,1.25,1.25,1.25,1.25,0,0,0,0,0,0
4934,1.8236,12.361,307.83,-0.74388,3.6665,16.083,0.071576,-0.10928,-0.34227,-0.04843,-0.058,-0.01827,1.25,1.25,1.25,1.25,0,0,0,0,0,0
4936,1.8178,12.373,307.92,-0.74276,3.6669,16.087,0.071144,-0.10962,-0.34234,-0.04843,-0.058,-0.01827,1.25,1.25,1.25,1.25,0,0,0,0,0,0
4938,1.8808,12.443,307.79,-0.74478,3.6695,16.07,0.070943,-0.10978,-0.34245,-0.04321,-0.06119,-0.0174,1.25,1.25,1.25,1.25,0,0,0,0,0,0
4940,1.9388,12.504,307.68,-0.75479,3.6716,16.067,0.071144,-0.10946,-0.34266,-0.04321,-0.06119,-0.0174,1.25,1.25,1.25,1.25,0,0,0,0,0,0
4942,1.989,12.559,307.57,-0.75502,3.674,16.062,0.071209,-0.10911,-0.34285,-0.04321,-0.06119,-0.0174,1.25,1.25,1.25,1.25,0,0,0,0,0,0
4944,2.0326,12.606,307.47,-0.75683,3.6764,16.071,0.071006,-0.10903,-0.343,-0.04321,-0.06119,-0.0174,1.25,1.25,1.25,1.25,0,0,0,0,0,0
4946,2.0714,12.644,307.37,-0.7617,3.6751,16.091,0.071051,-0.1089,-0.34308,-0.04321,-0.06119,-0.0174,1.25,1.25,1.25,1.25,0,0,0,0,0,0
4948,2.1053,12.678,307.28,-0.76385,3.675,16.087,0.071236,-0.10875,-0.34317,-0.04321,-0.06119,-0.0174,1.25,1.25,1.25,1.25,0,0,0,0,0,0
4950,2.1348,12.705,307.19,-0.76515,3.6704,16.085,0.071151,-0.10851,-0.34323,-0.04321,-0.06119,-0.0174,1.25,1.25,1.25,1.25,0,0,0,0,0,0
4952,2.1577,12.726,307.11,-0.75923,3.6654,16.08,0.070817,-0.10852,-0.34331,-0.04321,-0.06119,-0.0174,1.25,1.25,1.25,1.25,0,0,0,0,0,0
4954,2.1086,12.69,307.23,-0.7513,3.6624,16.059,0.070556,-0.10866,-0.34328,-0.04437,-0.05365,-0.01827,1.25,1.25,1.25,1.25,0,0,0,0,0,0
4956,2.067,12.659,307.35,-0.75354,3.6633,16.053,0.070161,-0.10883,-0.34324,-0.04437,-0.05365,-0.01827,1.25,1.25,1.25,1.25,0,0,0,0,0,0
4958,2.0312,12.633,307.46,-0.75263,3.6618,16.045,0.069885,-0.10904,-0.34317,-0.04437,-0.05365,-0.01827,1.25,1.25,1.25,1.25,0,0,0,0,0,0
4960,1.9979,12.611,307.56,-0.74514,3.6631,16.057,0.070138,-0.1089,-0.34316,-0.04437,-0.05365,-0.01827,1.25,1.25,1.25,1.25,0,0,0,0,0,0
4962,1.9678,12.592,307.67,-0.7399,3.6621,16.056,0.070474,-0.10873,-0.34313,-0.04437,-0.05365,-0.01827,1.25,1.25,1.25,1.25,0,0,0,0,0,0
4964,1.9434,12.578,307.76,-0.74358,3.6681,16.062,0.070494,-0.10865,-0.34307,-0.04437,-0.05365,-0.01827,1.25,1.25,1.25,1.25,0,0,0,0,0,0
4966,1.9226,12.567,307.85,-0.74347,3.6732,16.078,0.070491,-0.10868,-0.34314,-0.04437,-0.05365,-0.01827,1.25,1.25,1.25,1.25,0,0,0,0,0,0
4968,1.9047,12.558,307.94,-0.74144,3.6707,16.071,0.070879,-0.10849,-0.34326,-0.04437,-0.05365,-0.01827,1.25,1.25,1.25,1.25,0,0,0,0,0,0
4970,1.7845,12.369,308.96,-0.74633,3.6699,16.078,0.071148,-0.10831,-0.34342,-0.06612,-0.02378,-0.01392,1.25,1.25,1.25,1.25,0,0,0,0,0,0
4972,1.6781,12.199,309.94,-0.74508,3.668,16.066,0.071278,-0.10817,-0.34359,-0.06612,-0.02378,-0.01392,1.25,1.25,1.25,1.25,0,0,0,0,0,0
4974,1.5855,12.045,310.9,-0.74783,3.6643,16.067,0.07151,-0.10788,-0.34366,-0.06612,-0.02378,-0.01392,1.25,1.25,1.25,1.25,0,0,0,0,0,0
4976,1.5049,11.907,311.84,-0.74779,3.6627,16.058,0.071478,-0.10774,-0.34376,-0.06612,-0.02378,-0.01392,1.25,1.25,1.25,1.25,0,0,0,0,0,0
4978,1.4342,11.784,312.75,-0.7436,3.6622,16.056,0.070842,-0.10808,-0.34383,-0.06612,-0.02378,-0.01392,1.25,1.25,1.25,1.25,0,0,0,0,0,0
4980,1.3728,11.674,313.63,-0.74144,3.6626,16.066,0.070551,-0.10827,-0.34389,-0.06612,-0.02378,-0.01392,1.25,1.25,1.25,1.25,0,0,0,0,0,0
4982,1.3206,11.577,314.49,-0.73954,3.6624,16.06,0.070459,-0.10807,-0.34396,-0.06612,-0.02378,-0.01392,1.25,1.25,1.25,1.25,0,0,0,0,0,0
4984,1.2772,11.492,315.33,-0.74019,3.6612,16.058,0.070331,-0.10821,-0.34386,-0.06612,-0.02378,-0.01392,1.25,1.25,1.25,1.25,0,0,0,0,0,0
4985,1.3396,11.576,315.23,-0.74101,3.6612,16.058,0.070464,-0.10822,-0.34383,-0.0609,-0.04321,-0.01508,1.25,1.25,1.25,1.25,0,0,0,0,0,0
4986,1.402,11.659,315.14,-0.74182,3.6613,16.057,0.070597,-0.10823,-0.3438,-0.05568,-0.06264,-0.01624,1.25,1.25,1.25,1.25,0,0,0,0,0,0
4988,1.5108,11.808,314.96,-0.73661,3.6634,16.053,0.070901,-0.10819,-0.34378,-0.05568,-0.06264,-0.01624,1.25,1.25,1.25,1.25,0,0,0,0,0,0
4990,1.6045,11.942,314.79,-0.72937,3.6664,16.05,0.071509,-0.10801,-0.34369,-0.05568,-0.06264,-0.01624,1.25,1.25,1.25,1.25,0,0,0,0,0,0
4992,1.6879,12.061,314.63,-0.73116,3.6684,16.047,0.072127,-0.1077,-0.34369,-0.05568,-0.06264,-0.01624,1.25,1.25,1.25,1.25,0,0,0,0,0,0
4994,1.7626,12.166,314.48,-0.73534,3.6704,16.05,0.072554,-0.10755,-0.34369,-0.05568,-0.06264,-0.01624,1.25,1.25,1.25,1.25,0,0,0,0,0,0
4996,1.8287,12.263,314.34,-0.73598,3.6756,16.034,0.072714,-0.10756,-0.34365,-0.05568,-0.06264,-0.01624,1.25,1.25,1.25,1.25,0,0,0,0,0,0
4998,1.8871,12.348,314.2,-0.73667,3.6751,16.023,0.072826,-0.10753,-0.34369,-0.05568,-0.06264,-0.01624,1.25,1.25,1.25,1.25,0,0,0,0,0,0
5000,1.9384,12.424,314.08,-0.7374,3.6746,16.021,0.072833,-0.10754,-0.34375,-0.05568,-0.06264,-0.01624,1.25,1.25,1.25,1.25,0,0,0,0,0,0
5002,1.924,12.42,314.48,-0.73871,3.6741,16.028,0.073032,-0.10727,-0.3439,-0.0841,-0.0551,-0.00667,1.25,1.25,1.25,1.25,0,0,0,0,0,0
5004,1.9137,12.417,314.87,-0.74308,3.6709,16.034,0.073255,-0.10699,-0.34397,-0.0841,-0.0551,-0.00667,1.25,1.25,1.25,1.25,0,0,0,0,0,0
5006,1.905,12.416,315.25,-0.74001,3.6693,16.033,0.073755,-0.10683,-0.34395,-0.0841,-0.0551,-0.00667,1.25,1.25,1.25,1.25,0,0,0,0,0,0
5008,1.8976,12.416,315.62,-0.7369,3.6703,16.034,0.073749,-0.10687,-0.34389,-0.0841,-0.0551,-0.00667,1.25,1.25,1.25,1.25,0,0,0,0,0,0
5010,1.8914,12.419,315.97,-0.73294,3.6679,16.015,0.073265,-0.10711,-0.3438,-0.0841,-0.0551,-0.00667,1.25,1.25,1.25,1.25,0,0,0,0,0,0
5012,1.8865,12.422,316.31,-0.73074,3.6664,16.011,0.07279,-0.10744,-0.34372,-0.0841,-0.0551,-0.00667,1.25,1.25,1.25,1.25,0,0,0,0,0,0
5014,1.8831,12.427,316.64,-0.73006,3.6701,16.009,0.072636,-0.10766,-0.34367,-0.0841,-0.0551,-0.00667,1.25,1.25,1.25,1.25,0,0,0,0,0,0
5016,1.881,12.435,316.95,-0.72873,3.6726,16.002,0.072993,-0.10764,-0.34354,-0.0841,-0.0551,-0.00667,1.25,1.25,1.25,1.25,0,0,0,0,0,0
5018,1.8477,12.399,317.23,-0.73193,3.6764,16.011,0.073173,-0.10757,-0.34358,-0.07163,-0.05133,-0.01885,1.25,1.25,1.25,1.25,0,0,0,0,0,0
5020,1.8195,12.369,317.5,-0.73161,3.6777,16.002,0.073379,-0.1074,-0.34361,-0.07163,-0.05133,-0.01885,1.25,1.25,1.25,1.25,0,0,0,0,0,0
5022,1.7978,12.344,317.75,-0.73868,3.6788,16.018,0.073633,-0.10741,-0.34356,-0.07163,-0.05133,-0.01885,1.25,1.25,1.25,1.25,0,0,0,0,0,0
5024,1.7796,12.323,318,-0.73758,3.6789,16.021,0.073372,-0.10773,-0.34339,-0.07163,-0.05133,-0.01885,1.25,1.25,1.25,1.25,0,0,0,0,0,0
5026,1.765,12.307,318.24,-0.73816,3.6807,16.024,0.072925,-0.10793,-0.34337,-0.07163,-0.05133,-0.01885,1.25,1.25,1.25,1.25,0,0,0,0,0,0
5028,1.7521,12.292,318.46,-0.7337,3.6785,16.031,0.072752,-0.10797,-0.3434,-0.07163,-0.05133,-0.01885,1.25,1.25,1.25,1.25,0,0,0,0,0,0
5030,1.7414,12.28,318.68,-0.73122,3.673,16.037,0.072857,-0.10804,-0.34337,-0.07163,-0.05133,-0.01885,1.25,1.25,1.25,1.25,0,0,0,0,0,0
5032,1.7336,12.269,318.9,-0.73283,3.6723,16.044,0.072841,-0.10822,-0.34325,-0.07163,-0.05133,-0.01885,1.25,1.25,1.25,1.25,0,0,0,0,0,0
5034,2.9997,12.93,316.98,-0.72853,3.6724,16.04,0.072523,-0.10849,-0.34313,-0.00145,-0.05539,-0.02349,1.25,1.25,1.25,1.25,0,0,0,0,0,0
5036,4.1633,13.524,315,-0.71986,3.6696,16.046,0.072197,-0.10873,-0.34316,-0.00145,-0.05539,-0.02349,1.25,1.25,1.25,1.25,0,0,0,0,0,0
5038,5.1983,14.033,312.95,-0.72534,3.6712,16.05,0.072128,-0.10878,-0.34321,-0.00145,-0.05539,-0.02349,1.25,1.25,1.25,1.25,0,0,0,0,0,0
5040,6.0771,14.443,310.83,-0.73153,3.6662,16.044,0.072555,-0.10849,-0.3432,-0.00145,-0.05539,-0.02349,1.25,1.25,1.25,1.25,0,0,0,0,0,0
5042,6.7728,14.745,308.67,-0.72938,3.6626,16.035,0.072915,-0.10832,-0.34314,-0.00145,-0.05539,-0.02349,1.25,1.25,1.25,1.25,0,0,0,0,0,0
5044,7.2778,14.939,306.51,-0.73183,3.6644,16.035,0.073038,-0.10806,-0.34314,-0.00145,-0.05539,-0.02349,1.25,1.25,1.25,1.25,0,0,0,0,0,0
5046,7.5989,15.03,304.38,-0.73289,3.663,16.044,0.073291,-0.10774,-0.34315,-0.00145,-0.05539,-0.02349,1.25,1.25,1.25,1.25,0,0,0,0,0,0
5048,7.7563,15.04,302.31,-0.73043,3.6678,16.06,0.073561,-0.10741,-0.34314,-0.00145,-0.05539,-0.02349,1.25,1.25,1.25,1.25,0,0,0,0,0,0
5050,7.1945,14.82,302.05,-0.73306,3.6723,16.075,0.073434,-0.10719,-0.34321,-0.04263,-0.08178,-0.0058,1.25,1.25,1.25,1.25,0,0,0,0,0,0
5052,6.6935,14.628,301.8,-0.73264,3.6794,16.075,0.073487,-0.10678,-0.34339,-0.04263,-0.08178,-0.0058,1.25,1.25,1.25,1.25,0,0,0,0,0,0
5054,6.2475,14.461,301.56,-0.73421,3.6874,16.072,0.073487,-0.10674,-0.3434,-0.04263,-0.08178,-0.0058,1.25,1.25,1.25,1.25,0,0,0,0,0,0
5056,5.8501,14.314,301.32,-0.73488,3.6898,16.07,0.073761,-0.10663,-0.34337,-0.04263,-0.08178,-0.0058,1.25,1.25,1.25,1.25,0,0,0,0,0,0
5058,5.4954,14.184,301.1,-0.73467,3.6871,16.06,0.073541,-0.10681,-0.34334,-0.04263,-0.08178,-0.0058,1.25,1.25,1.25,1.25,0,0,0,0,0,0
5060,5.1797,14.07,300.89,-0.73691,3.6876,16.046,0.073408,-0.10696,-0.34336,-0.04263,-0.08178,-0.0058,1.25,1.25,1.25,1.25,0,0,0,0,0,0
5062,4.8968,13.97,300.68,-0.7348,3.6875,16.032,0.073004,-0.10711,-0.34342,-0.04263,-0.08178,-0.0058,1.25,1.25,1.25,1.25,0,0,0,0,0,0
5064,4.645,13.879,300.48,-0.73876,3.6872,16.044,0.073272,-0.1069,-0.34343,-0.04263,-0.08178,-0.0058,1.25,1.25,1.25,1.25,0,0,0,0,0,0
5066,5.3947,13.811,298.64,-0.72848,3.6857,16.047,0.073572,-0.10671,-0.34349,0.0348,-0.0609,-0.01479,1.25,1.25,1.25,1.25,0,0,0,0,0,0
5068,6.0975,13.731,296.75,-0.73505,3.6879,16.067,0.073807,-0.1065,-0.3435,0.0348,-0.0609,-0.01479,1.25,1.25,1.25,1.25,0,0,0,0,0,0
5070,6.7481,13.637,294.82,-0.74097,3.6856,16.067,0.074169,-0.10612,-0.3435,0.0348,-0.0609,-0.01479,1.25,1.25,1.25,1.25,0,0,0,0,0,0
5072,7.3404,13.532,292.84,-0.74165,3.6853,16.066,0.074605,-0.1059,-0.34334,0.0348,-0.0609,-0.01479,1.25,1.25,1.25,1.25,0,0,0,0,0,0
5074,7.8692,13.416,290.8,-0.74317,3.687,16.057,0.074729,-0.10597,-0.34317,0.0348,-0.0609,-0.01479,1.25,1.25,1.25,1.25,0,0,0,0,0,0
5076,8.3269,13.292,288.72,-0.73641,3.6868,16.041,0.074416,-0.10629,-0.34304,0.0348,-0.0609,-0.01479,1.25,1.25,1.25,1.25,0,0,0,0,0,0
5078,8.7121,13.159,286.59,-0.73794,3.6861,16.034,0.073991,-0.10661,-0.34288,0.0348,-0.0609,-0.01479,1.25,1.25,1.25,1.25,0,0,0,0,0,0
5080,9.0222,13.02,284.42,-0.74247,3.6889,16.039,0.073486,-0.10695,-0.34279,0.0348,-0.0609,-0.01479,1.25,1.25,1.25,1.25,0,0,0,0,0,0
5082,8.3192,12.99,284.87,-0.73612,3.6912,16.041,0.07297,-0.10726,-0.34284,-0.04002,-0.08671,-0.00174,1.25,1.25,1.25,1.25,0,0,0,0,0,0
5084,7.6796,12.965,285.28,-0.74089,3.698,16.036,0.07276,-0.10735,-0.34302,-0.04002,-0.08671,-0.00174,1.25,1.25,1.25,1.25,0,0,0,0,0,0
5086,7.098,12.946,285.68,-0.73907,3.698,16.022,0.072761,-0.10752,-0.34317,-0.04002,-0.08671,-0.00174,1.25,1.25,1.25,1.25,0,0,0,0,0,0
5088,6.5712,12.928,286.06,-0.74191,3.6957,16.031,0.073035,-0.10753,-0.34323,-0.04002,-0.08671,-0.00174,1.25,1.25,1.25,1.25,0,0,0,0,0,0
5090,6.0931,12.914,286.42,-0.73808,3.6948,16.03,0.07314,-0.10749,-0.34333,-0.04002,-0.08671,-0.00174,1.25,1.25,1.25,1.25,0,0,0,0,0,0
5092,5.6595,12.902,286.76,-0.73456,3.6968,16.045,0.073155,-0.10758,-0.34341,-0.04002,-0.08671,-0.00174,1.25,1.25,1.25,1.25,0,0,0,0,0,0
5094,5.2666,12.893,287.09,-0.72955,3.6959,16.044,0.073096,-0.1077,-0.34342,-0.04002,-0.08671,-0.00174,1.25,1.25,1.25,1.25,0,0,0,0,0,0
5096,4.9135,12.886,287.39,-0.73285,3.6961,16.048,0.073363,-0.10778,-0.34333,-0.04002,-0.08671,-0.00174,1.25,1.25,1.25,1.25,0,0,0,0,0,0
5098,4.4713,12.766,288.19,-0.73442,3.6945,16.054,0.073462,-0.10778,-0.34323,-0.07163,-0.08613,-0.01972,1.25,1.25,1.25,1.25,0,0,0,0,0,0
5100,4.0681,12.66,288.95,-0.7333,3.6929,16.038,0.073278,-0.10794,-0.34313,-0.07163,-0.08613,-0.01972,1.25,1.25,1.25,1.25,0,0,0,0,0,0
5102,3.7017,12.563,289.7,-0.73287,3.6872,16.034,0.072914,-0.10821,-0.34305,-0.07163,-0.08613,-0.01972,1.25,1.25,1.25,1.25,0,0,0,0,0,0
5104,3.3697,12.477,290.42,-0.73272,3.688,16.035,0.072698,-0.10808,-0.34307,-0.07163,-0.08613,-0.01972,1.25,1.25,1.25,1.25,0,0,0,0,0,0
5106,3.0702,12.399,291.11,-0.73409,3.6853,16.047,0.072729,-0.1079,-0.34306,-0.07163,-0.08613,-0.01972,1.25,1.25,1.25,1.25,0,0,0,0,0,0
5108,2.8005,12.33,291.79,-0.73378,3.6874,16.062,0.072694,-0.10775,-0.34314,-0.07163,-0.08613,-0.01972,1.25,1.25,1.25,1.25,0,0,0,0,0,0
5110,2.5571,12.27,292.44,-0.72945,3.6913,16.08,0.072652,-0.10778,-0.34316,-0.07163,-0.08613,-0.01972,1.25,1.25,1.25,1.25,0,0,0,0,0,0
5112,2.3382,12.215,293.06,-0.7259,3.6887,16.103,0.072493,-0.10789,-0.34319,-0.07163,-0.08613,-0.01972,1.25,1.25,1.25,1.25,0,0,0,0,0,0
5114,2.1014,12.095,293.98,-0.71914,3.6845,16.115,0.072544,-0.10783,-0.34325,-0.06815,-0.05336,-0.01566,1.25,1.25,1.25,1.25,0,0,0,0,0,0
5115,1.995,12.041,294.43,-0.72002,3.6848,16.115,0.072495,-0.10785,-0.34332,-0.06815,-0.05336,-0.01566,1.25,1.25,1.25,1.25,0,0,0,0,0,0
5116,1.8885,11.987,294.88,-0.72089,3.685,16.116,0.072446,-0.10788,-0.34339,-0.06815,-0.05336,-0.01566,1.25,1.25,1.25,1.25,0,0,0,0,0,0
5118,1.6981,11.891,295.75,-0.72377,3.6866,16.122,0.072593,-0.10789,-0.34351,-0.06815,-0.05336,-0.01566,1.25,1.25,1.25,1.25,0,0,0,0,0,0
5120,1.5274,11.805,296.6,-0.72117,3.688,16.123,0.07276,-0.10799,-0.34342,-0.06815,-0.05336,-0.01566,1.25,1.25,1.25,1.25,0,0,0,0,0,0
5122,1.3762,11.728,297.43,-0.72299,3.6854,16.126,0.072753,-0.1081,-0.34335,-0.06815,-0.05336,-0.01566,1.25,1.25,1.25,1.25,0,0,0,0,0,0
5124,1.242,11.661,298.23,-0.72028,3.6851,16.12,0.07274,-0.10802,-0.34341,-0.06815,-0.05336,-0.01566,1.25,1.25,1.25,1.25,0,0,0,0,0,0
5126,1.125,11.602,299.01,-0.72311,3.6825,16.116,0.072475,-0.10815,-0.34346,-0.06815,-0.05336,-0.01566,1.25,1.25,1.25,1.25,0,0,0,0,0,0
5128,1.0237,11.551,299.76,-0.72462,3.6822,16.104,0.072298,-0.10819,-0.34353,-0.06815,-0.05336,-0.01566,1.25,1.25,1.25,1.25,0,0,0,0,0,0
5130,0.97521,11.555,300.37,-0.72628,3.6825,16.091,0.07222,-0.10799,-0.3436,-0.04321,-0.03944,-0.0087,1.25,1.25,1.25,1.25,0,0,0,0,0,0
5132,0.93604,11.561,300.95,-0.72769,3.6803,16.094,0.072284,-0.10783,-0.34381,-0.04321,-0.03944,-0.0087,1.25,1.25,1.25,1.25,0,0,0,0,0,0
5134,0.90561,11.569,301.52,-0.72953,3.6788,16.088,0.072782,-0.1075,-0.34385,-0.04321,-0.03944,-0.0087,1.25,1.25,1.25,1.25,0,0,0,0,0,0
5136,0.88381,11.58,302.07,-0.73396,3.6801,16.081,0.073158,-0.1073,-0.34378,-0.04321,-0.03944,-0.0087,1.25,1.25,1.25,1.25,0,0,0,0,0,0
5138,0.86754,11.595,302.6,-0.73055,3.6833,16.082,0.073652,-0.10705,-0.34362,-0.04321,-0.03944,-0.0087,1.25,1.25,1.25,1.25,0,0,0,0,0,0
5140,0.85659,11.611,303.11,-0.72875,3.6823,16.083,0.073796,-0.10703,-0.34344,-0.04321,-0.03944,-0.0087,1.25,1.25,1.25,1.25,0,0,0,0,0,0
5142,0.85286,11.627,303.61,-0.73563,3.6788,16.084,0.073451,-0.10723,-0.34339,-0.04321,-0.03944,-0.0087,1.25,1.25,1.25,1.25,0,0,0,0,0,0
5144,0.85363,11.645,304.09,-0.73574,3.6805,16.08,0.072781,-0.10771,-0.34336,-0.04321,-0.03944,-0.0087,1.25,1.25,1.25,1.25,0,0,0,0,0,0
5146,0.85298,11.666,304.34,-0.73544,3.6795,16.088,0.07242,-0.1079,-0.34332,-0.0261,-0.03132,-0.01537,1.25,1.25,1.25,1.25,0,0,0,0,0,0
5148,0.85714,11.687,304.59,-0.73647,3.6768,16.096,0.072774,-0.10789,-0.34322,-0.0261,-0.03132,-0.01537,1.25,1.25,1.25,1.25,0,0,0,0,0,0
5150,0.86645,11.708,304.83,-0.74045,3.6772,16.103,0.072952,-0.10806,-0.34319,-0.0261,-0.03132,-0.01537,1.25,1.25,1.25,1.25,0,0,0,0,0,0
5152,0.88245,11.727,305.06,-0.75097,3.6721,16.114,0.072683,-0.10841,-0.34322,-0.0261,-0.03132,-0.01537,1.25,1.25,1.25,1.25,0,0,0,0,0,0
5154,0.90148,11.745,305.28,-0.7525,3.6687,16.104,0.072251,-0.10841,-0.34333,-0.0261,-0.03132,-0.01537,1.25,1.25,1.25,1.25,0,0,0,0,0,0
5156,0.92343,11.764,305.49,-0.75543,3.6654,16.105,0.072417,-0.10833,-0.34342,-0.0261,-0.03132,-0.01537,1.25,1.25,1.25,1.25,0,0,0,0,0,0
5158,0.94555,11.784,305.7,-0.75116,3.6657,16.082,0.072602,-0.10834,-0.34351,-0.0261,-0.03132,-0.01537,1.25,1.25,1.25,1.25,0,0,0,0,0,0
5160,0.96936,11.805,305.9,-0.75288,3.667,16.084,0.072363,-0.1085,-0.34356,-0.0261,-0.03132,-0.01537,1.25,1.25,1.25,1.25,0,0,0,0,0,0
5162,0.96936,11.758,306.99,-0.75212,3.6667,16.094,0.071789,-0.10888,-0.3435,-0.08149,-0.02523,-0.00812,1.25,1.25,1.25,1.25,0,0,0,0,0,0
5164,0.97305,11.717,308.05,-0.74979,3.6647,16.087,0.07187,-0.10893,-0.34336,-0.08149,-0.02523,-0.00812,1.25,1.25,1.25,1.25,0,0,0,0,0,0
5166,0.98099,11.682,309.09,-0.75194,3.6683,16.093,0.071705,-0.10899,-0.34325,-0.08149,-0.02523,-0.00812,1.25,1.25,1.25,1.25,0,0,0,0,0,0
5168,0.9927,11.653,310.11,-0.75324,3.6666,16.086,0.071477,-0.10912,-0.34318,-0.08149,-0.02523,-0.00812,1.25,1.25,1.25,1.25,0,0,0,0,0,0
5170,1.0076,11.629,311.09,-0.75332,3.6643,16.082,0.071645,-0.10904,-0.34304,-0.08149,-0.02523,-0.00812,1.25,1.25,1.25,1.25,0,0,0,0,0,0
5172,1.0247,11.61,312.06,-0.75122,3.6651,16.075,0.071633,-0.10904,-0.34298,-0.08149,-0.02523,-0.00812,1.25,1.25,1.25,1.25,0,0,0,0,0,0
5174,1.0438,11.597,313,-0.74892,3.667,16.072,0.071451,-0.10888,-0.34299,-0.08149,-0.02523,-0.00812,1.25,1.25,1.25,1.25,0,0,0,0,0,0
5176,1.0657,11.587,313.91,-0.75149,3.6669,16.082,0.071627,-0.10889,-0.3429,-0.08149,-0.02523,-0.00812,1.25,1.25,1.25,1.25,0,0,0,0,0,0
5178,1.0797,11.592,314.4,-0.74377,3.6645,16.076,0.071371,-0.10912,-0.34292,-0.07047,-0.04292,-0.01247,1.25,1.25,1.25,1.25,0,0,0,0,0,0
5180,1.0963,11.599,314.88,-0.74504,3.662,16.077,0.071387,-0.10902,-0.34303,-0.07047,-0.04292,-0.01247,1.25,1.25,1.25,1.25,0,0,0,0,0,0
5182,1.1154,11.608,315.34,-0.74765,3.6613,16.083,0.071439,-0.10886,-0.34315,-0.07047,-0.04292,-0.01247,1.25,1.25,1.25,1.25,0,0,0,0,0,0
5184,1.1354,11.619,315.78,-0.74577,3.6614,16.084,0.071025,-0.10911,-0.34321,-0.07047,-0.04292,-0.01247,1.25,1.25,1.25,1.25,0,0,0,0,0,0
5186,1.1551,11.63,316.21,-0.74032,3.6572,16.091,0.070819,-0.10926,-0.34324,-0.07047,-0.04292,-0.01247,1.25,1.25,1.25,1.25,0,0,0,0,0,0
5188,1.177,11.642,316.63,-0.74359,3.6545,16.086,0.070949,-0.10921,-0.34328,-0.07047,-0.04292,-0.01247,1.25,1.25,1.25,1.25,0,0,0,0,0,0
5190,1.1994,11.656,317.03,-0.74189,3.655,16.092,0.070892,-0.10912,-0.34333,-0.07047,-0.04292,-0.01247,1.25,1.25,1.25,1.25,0,0,0,0,0,0
5192,1.2238,11.672,317.42,-0.74671,3.6557,16.099,0.070586,-0.10912,-0.34347,-0.07047,-0.04292,-0.01247,1.25,1.25,1.25,1.25,0,0,0,0,0,0
5194,1.3389,11.794,317.33,-0.74354,3.6501,16.098,0.070411,-0.10925,-0.34346,-0.04843,-0.05046,-0.02987,1.25,1.25,1.25,1.25,0,0,0,0,0,0
5196,1.4379,11.899,317.26,-0.74052,3.65,16.094,0.07083,-0.10887,-0.34351,-0.04843,-0.05046,-0.02987,1.25,1.25,1.25,1.25,0,0,0,0,0,0
5198,1.5219,11.99,317.19,-0.73541,3.6478,16.085,0.071086,-0.10876,-0.34348,-0.04843,-0.05046,-0.02987,1.25,1.25,1.25,1.25,0,0,0,0,0,0
5200,1.5959,12.068,317.12,-0.73941,3.648,16.094,0.070782,-0.10906,-0.34342,-0.04843,-0.05046,-0.02987,1.25,1.25,1.25,1.25,0,0,0,0,0,0
5202,1.6582,12.136,317.06,-0.73519,3.6526,16.094,0.070338,-0.10936,-0.34322,-0.04843,-0.05046,-0.02987,1.25,1.25,1.25,1.25,0,0,0,0,0,0
5204,1.7104,12.197,317.01,-0.73115,3.6596,16.09,0.070102,-0.10931,-0.34316,-0.04843,-0.05046,-0.02987,1.25,1.25,1.25,1.25,0,0,0,0,0,0
5206,1.7546,12.251,316.96,-0.72887,3.6625,16.086,0.070211,-0.10928,-0.34313,-0.04843,-0.05046,-0.02987,1.25,1.25,1.25,1.25,0,0,0,0,0,0
5208,1.793,12.299,316.91,-0.73094,3.6685,16.102,0.070258,-0.10929,-0.34328,-0.04843,-0.05046,-0.02987,1.25,1.25,1.25,1.25,0,0,0,0,0,0
5210,2.1105,12.566,315.67,-0.73223,3.6747,16.103,0.069943,-0.10943,-0.34341,-0.0319,-0.06583,-0.00696,1.25,1.25,1.25,1.25,0,0,0,0,0,0
5212,2.3781,12.79,314.5,-0.7352,3.6782,16.1,0.070106,-0.10955,-0.34346,-0.0319,-0.06583,-0.00696,1.25,1.25,1.25,1.25,0,0,0,0,0,0
5214,2.6003,12.973,313.4,-0.73524,3.6773,16.101,0.070178,-0.10975,-0.34346,-0.0319,-0.06583,-0.00696,1.25,1.25,1.25,1.25,0,0,0,0,0,0
5216,2.7813,13.121,312.37,-0.7318,3.6754,16.09,0.070041,-0.10989,-0.34352,-0.0319,-0.06583,-0.00696,1.25,1.25,1.25,1.25,0,0,0,0,0,0
5218,2.929,13.239,311.4,-0.73445,3.6724,16.083,0.07021,-0.10993,-0.3436,-0.0319,-0.06583,-0.00696,1.25,1.25,1.25,1.25,0,0,0,0,0,0
5220,3.047,13.332,310.49,-0.73551,3.6753,16.089,0.070619,-0.10992,-0.34351,-0.0319,-0.06583,-0.00696,1.25,1.25,1.25,1.25,0,0,0,0,0,0
5222,3.134,13.406,309.63,-0.72288,3.6774,16.091,0.071129,-0.10987,-0.34339,-0.0319,-0.06583,-0.00696,1.25,1.25,1.25,1.25,0,0,0,0,0,0
5224,3.1993,13.463,308.83,-0.72176,3.6809,16.083,0.071179,-0.10981,-0.3434,-0.0319,-0.06583,-0.00696,1.25,1.25,1.25,1.25,0,0,0,0,0,0
5226,3.2459,13.508,308.09,-0.71881,3.6818,16.071,0.071494,-0.10955,-0.34348,-0.04176,-0.08555,-0.00986,1.25,1.25,1.25,1.25,0,0,0,0,0,0
5228,3.2782,13.54,307.39,-0.72063,3.6838,16.071,0.071602,-0.10939,-0.3435,-0.04176,-0.08555,-0.00986,1.25,1.25,1.25,1.25,0,0,0,0,0,0
5230,3.296,13.564,306.74,-0.71587,3.6837,16.055,0.071665,-0.10927,-0.34347,-0.04176,-0.08555,-0.00986,1.25,1.25,1.25,1.25,0,0,0,0,0,0
5232,3.3052,13.578,306.12,-0.72074,3.6861,16.071,0.071519,-0.10908,-0.3434,-0.04176,-0.08555,-0.00986,1.25,1.25,1.25,1.25,0,0,0,0,0,0
5234,3.3081,13.585,305.54,-0.72785,3.6897,16.07,0.071236,-0.10944,-0.34328,-0.04176,-0.08555,-0.00986,1.25,1.25,1.25,1.25,0,0,0,0,0,0
5236,3.3037,13.589,305,-0.72863,3.6906,16.056,0.071077,-0.10977,-0.34326,-0.04176,-0.08555,-0.00986,1.25,1.25,1.25,1.25,0,0,0,0,0,0
5238,3.2927,13.587,304.48,-0.7286,3.6925,16.063,0.070745,-0.11001,-0.34338,-0.04176,-0.08555,-0.00986,1.25,1.25,1.25,1.25,0,0,0,0,0,0
5240,3.2772,13.585,304,-0.72975,3.699,16.049,0.071135,-0.10976,-0.34338,-0.04176,-0.08555,-0.00986,1.25,1.25,1.25,1.25,0,0,0,0,0,0
5242,3.0627,13.418,304.56,-0.72731,3.6997,16.06,0.071369,-0.10986,-0.34325,-0.05075,-0.04321,-0.01131,1.25,1.25,1.25,1.25,0,0,0,0,0,0
5244,2.8687,13.268,305.11,-0.72422,3.6992,16.063,0.071406,-0.10991,-0.34324,-0.05075,-0.04321,-0.01131,1.25,1.25,1.25,1.25,0,0,0,0,0,0
5246,2.6928,13.134,305.63,-0.71791,3.6964,16.061,0.07134,-0.10988,-0.34331,-0.05075,-0.04321,-0.01131,1.25,1.25,1.25,1.25,0,0,0,0,0,0
5248,2.5369,13.013,306.14,-0.72411,3.697,16.064,0.071474,-0.10973,-0.34342,-0.05075,-0.04321,-0.01131,1.25,1.25,1.25,1.25,0,0,0,0,0,0
5250,2.3985,12.907,306.62,-0.72598,3.6961,16.056,0.072077,-0.10931,-0.34354,-0.05075,-0.04321,-0.01131,1.25,1.25,1.25,1.25,0,0,0,0,0,0
5252,2.2753,12.811,307.09,-0.7249,3.6884,16.05,0.07255,-0.10881,-0.34359,-0.05075,-0.04321,-0.01131,1.25,1.25,1.25,1.25,0,0,0,0,0,0
5254,2.1667,12.726,307.55,-0.72714,3.6855,16.05,0.073042,-0.10846,-0.34352,-0.05075,-0.04321,-0.01131,1.25,1.25,1.25,1.25,0,0,0,0,0,0
5256,2.071,12.65,307.98,-0.7286,3.684,16.061,0.073398,-0.10826,-0.34345,-0.05075,-0.04321,-0.01131,1.25,1.25,1.25,1.25,0,0,0,0,0,0
5258,2.0628,12.663,308.11,-0.73055,3.6824,16.069,0.073386,-0.10812,-0.3433,-0.06467,-0.06989,-0.00493,1.25,1.25,1.25,1.25,0,0,0,0,0,0
5260,2.057,12.675,308.24,-0.7329,3.6828,16.064,0.073358,-0.10787,-0.34315,-0.06467,-0.06989,-0.00493,1.25,1.25,1.25,1.25,0,0,0,0,0,0
5262,2.0516,12.688,308.36,-0.72985,3.6842,16.066,0.073354,-0.10768,-0.34317,-0.06467,-0.06989,-0.00493,1.25,1.25,1.25,1.25,0,0,0,0,0,0
5264,2.0467,12.701,308.47,-0.72648,3.6831,16.045,0.073335,-0.10759,-0.34331,-0.06467,-0.06989,-0.00493,1.25,1.25,1.25,1.25,0,0,0,0,0,0
5266,2.0419,12.713,308.58,-0.72328,3.6839,16.042,0.073398,-0.10763,-0.34326,-0.06467,-0.06989,-0.00493,1.25,1.25,1.25,1.25,0,0,0,0,0,0
5268,2.0373,12.727,308.69,-0.72082,3.6901,16.053,0.073363,-0.10803,-0.3431,-0.06467,-0.06989,-0.00493,1.25,1.25,1.25,1.25,0,0,0,0,0,0
5270,2.0328,12.739,308.79,-0.71869,3.6908,16.06,0.07324,-0.10826,-0.34312,-0.06467,-0.06989,-0.00493,1.25,1.25,1.25,1.25,0,0,0,0,0,0
5272,2.0284,12.75,308.89,-0.71643,3.6913,16.076,0.073216,-0.10839,-0.34315,-0.06467,-0.06989,-0.00493,1.25,1.25,1.25,1.25,0,0,0,0,0,0
5274,2.8409,12.957,306.8,-0.71693,3.6935,16.084,0.072957,-0.1087,-0.34317,0.01914,-0.08178,-0.01189,1.25,1.25,1.25,1.25,0,0,0,0,0,0
5276,3.6044,13.137,304.67,-0.72025,3.6903,16.087,0.072806,-0.10887,-0.34318,0.01914,-0.08178,-0.01189,1.25,1.25,1.25,1.25,0,0,0,0,0,0
5278,4.3098,13.286,302.48,-0.71926,3.689,16.08,0.072651,-0.10887,-0.34316,0.01914,-0.08178,-0.01189,1.25,1.25,1.25,1.25,0,0,0,0,0,0
5280,4.9499,13.407,300.25,-0.72061,3.69,16.06,0.073148,-0.10888,-0.34306,0.01914,-0.08178,-0.01189,1.25,1.25,1.25,1.25,0,0,0,0,0,0
5282,5.5173,13.494,297.96,-0.72337,3.6874,16.069,0.07348,-0.10868,-0.34303,0.01914,-0.08178,-0.01189,1.25,1.25,1.25,1.25,0,0,0,0,0,0
5284,6.0017,13.548,295.61,-0.71979,3.6861,16.077,0.073488,-0.10886,-0.34298,0.01914,-0.08178,-0.01189,1.25,1.25,1.25,1.25,0,0,0,0,0,0
5286,6.3974,13.572,293.23,-0.72,3.6899,16.087,0.07309,-0.10907,-0.34291,0.01914,-0.08178,-0.01189,1.25,1.25,1.25,1.25,0,0,0,0,0,0
5288,6.6991,13.569,290.82,-0.7204,3.6942,16.088,0.07259,-0.10907,-0.34287,0.01914,-0.08178,-0.01189,1.25,1.25,1.25,1.25,0,0,0,0,0,0
5290,6.1567,13.347,291.85,-0.71769,3.6923,16.094,0.072439,-0.10896,-0.34287,-0.07163,-0.05336,-0.01769,1.25,1.25,1.25,1.25,0,0,0,0,0,0
5292,5.6521,13.141,292.85,-0.71644,3.6931,16.075,0.07272,-0.10879,-0.34282,-0.07163,-0.05336,-0.01769,1.25,1.25,1.25,1.25,0,0,0,0,0,0
5294,5.1858,12.951,293.83,-0.7207,3.6941,16.07,0.072935,-0.10878,-0.34272,-0.07163,-0.05336,-0.01769,1.25,1.25,1.25,1.25,0,0,0,0,0,0
5296,4.756,12.777,294.78,-0.72471,3.6956,16.074,0.072999,-0.10844,-0.34278,-0.07163,-0.05336,-0.01769,1.25,1.25,1.25,1.25,0,0,0,0,0,0
5298,4.3609,12.616,295.71,-0.72835,3.6946,16.077,0.072877,-0.10852,-0.34281,-0.07163,-0.05336,-0.01769,1.25,1.25,1.25,1.25,0,0,0,0,0,0
5300,3.9982,12.468,296.61,-0.73056,3.6913,16.077,0.072787,-0.10872,-0.3428,-0.07163,-0.05336,-0.01769,1.25,1.25,1.25,1.25,0,0,0,0,0,0
5302,3.6666,12.334,297.49,-0.73391,3.6945,16.078,0.07275,-0.10876,-0.34272,-0.07163,-0.05336,-0.01769,1.25,1.25,1.25,1.25,0,0,0,0,0,0
5304,3.3628,12.214,298.35,-0.73096,3.6978,16.077,0.072604,-0.10894,-0.34271,-0.07163,-0.05336,-0.01769,1.25,1.25,1.25,1.25,0,0,0,0,0,0
5306,3.1837,12.235,298.71,-0.73541,3.6988,16.074,0.072394,-0.10907,-0.34274,-0.04814,-0.06119,-0.00783,1.25,1.25,1.25,1.25,0,0,0,0,0,0
5308,3.0216,12.256,299.06,-0.7317,3.6985,16.057,0.072742,-0.10865,-0.34273,-0.04814,-0.06119,-0.00783,1.25,1.25,1.25,1.25,0,0,0,0,0,0
5310,2.8759,12.278,299.39,-0.73184,3.6982,16.051,0.072514,-0.10903,-0.3427,-0.04814,-0.06119,-0.00783,1.25,1.25,1.25,1.25,0,0,0,0,0,0
5312,2.7425,12.298,299.71,-0.72348,3.6955,16.05,0.072417,-0.10917,-0.34274,-0.04814,-0.06119,-0.00783,1.25,1.25,1.25,1.25,0,0,0,0,0,0
5314,2.6228,12.317,300.02,-0.72332,3.6937,16.067,0.072521,-0.10897,-0.34268,-0.04814,-0.06119,-0.00783,1.25,1.25,1.25,1.25,0,0,0,0,0,0
5316,2.5183,12.335,300.31,-0.73089,3.6941,16.073,0.072947,-0.10885,-0.34257,-0.04814,-0.06119,-0.00783,1.25,1.25,1.25,1.25,0,0,0,0,0,0
5318,2.4269,12.352,300.6,-0.7364,3.6906,16.079,0.073313,-0.10842,-0.34259,-0.04814,-0.06119,-0.00783,1.25,1.25,1.25,1.25,0,0,0,0,0,0
5320,2.3451,12.368,300.87,-0.73404,3.69,16.087,0.073398,-0.10829,-0.34264,-0.04814,-0.06119,-0.00783,1.25,1.25,1.25,1.25,0,0,0,0,0,0
5322,2.2051,12.299,301.6,-0.73557,3.692,16.079,0.073607,-0.10808,-0.34275,-0.08497,-0.06351,-0.01363,1.25,1.25,1.25,1.25,0,0,0,0,0,0
5324,2.0808,12.237,302.32,-0.73944,3.6932,16.081,0.073597,-0.10791,-0.34288,-0.08497,-0.06351,-0.01363,1.25,1.25,1.25,1.25,0,0,0,0,0,0
5326,1.9706,12.185,303.01,-0.74168,3.6986,16.074,0.073831,-0.10779,-0.34283,-0.08497,-0.06351,-0.01363,1.25,1.25,1.25,1.25,0,0,0,0,0,0
5328,1.8718,12.14,303.69,-0.73812,3.7023,16.07,0.07361,-0.10799,-0.34284,-0.08497,-0.06351,-0.01363,1.25,1.25,1.25,1.25,0,0,0,0,0,0
5330,1.783,12.102,304.34,-0.73307,3.7033,16.078,0.073785,-0.10791,-0.34292,-0.08497,-0.06351,-0.01363,1.25,1.25,1.25,1.25,0,0,0,0,0,0
5332,1.7046,12.07,304.97,-0.73127,3.7053,16.079,0.074177,-0.10765,-0.34299,-0.08497,-0.06351,-0.01363,1.25,1.25,1.25,1.25,0,0,0,0,0,0
5334,1.6378,12.043,305.58,-0.73835,3.709,16.091,0.074546,-0.1075,-0.34302,-0.08497,-0.06351,-0.01363,1.25,1.25,1.25,1.25,0,0,0,0,0,0
5336,1.5791,12.022,306.17,-0.73548,3.7101,16.098,0.074488,-0.10763,-0.34307,-0.08497,-0.06351,-0.01363,1.25,1.25,1.25,1.25,0,0,0,0,0,0
5338,1.7302,12.189,305.82,-0.73941,3.7127,16.097,0.074179,-0.10782,-0.34325,-0.03248,-0.05655,-0.00986,1.25,1.25,1.25,1.25,0,0,0,0,0,0
5340,1.8598,12.335,305.48,-0.73967,3.7136,16.087,0.074003,-0.10793,-0.34333,-0.03248,-0.05655,-0.00986,1.25,1.25,1.25,1.25,0,0,0,0,0,0
5342,1.9712,12.461,305.17,-0.74132,3.7124,16.077,0.074228,-0.10795,-0.34322,-0.03248,-0.05655,-0.00986,1.25,1.25,1.25,1.25,0,0,0,0,0,0
5344,2.0658,12.571,304.88,-0.741,3.7119,16.066,0.073918,-0.10832,-0.34297,-0.03248,-0.05655,-0.00986,1.25,1.25,1.25,1.25,0,0,0,0,0,0
5346,2.1451,12.666,304.6,-0.73937,3.7107,16.056,0.073673,-0.10875,-0.34277,-0.03248,-0.05655,-0.00986,1.25,1.25,1.25,1.25,0,0,0,0,0,0
5348,2.2122,12.746,304.34,-0.74016,3.7059,16.048,0.073323,-0.10909,-0.34265,-0.03248,-0.05655,-0.00986,1.25,1.25,1.25,1.25,0,0,0,0,0,0
5350,2.2711,12.816,304.09,-0.74759,3.7063,16.033,0.072869,-0.10934,-0.34262,-0.03248,-0.05655,-0.00986,1.25,1.25,1.25,1.25,0,0,0,0,0,0
5352,2.3199,12.876,303.86,-0.7471,3.705,16.022,0.072388,-0.10957,-0.34263,-0.03248,-0.05655,-0.00986,1.25,1.25,1.25,1.25,0,0,0,0,0,0
5354,2.298,12.882,303.83,-0.7521,3.7037,16.02,0.072102,-0.10969,-0.34268,-0.03277,-0.05249,-0.02059,1.25,1.25,1.25,1.25,0,0,0,0,0,0
5356,2.2765,12.885,303.79,-0.74832,3.6982,16.022,0.071785,-0.10996,-0.34268,-0.03277,-0.05249,-0.02059,1.25,1.25,1.25,1.25,0,0,0,0,0,0
5358,2.2588,12.887,303.76,-0.75236,3.6941,16.011,0.071467,-0.11006,-0.34282,-0.03277,-0.05249,-0.02059,1.25,1.25,1.25,1.25,0,0,0,0,0,0
5360,2.2014,12.844,304,-0.75222,3.6944,16.009,0.071572,-0.11,-0.34275,-0.042978,-0.054114,-0.019488,1.25,1.25,1.25,1.25,0,0,0,0,0,0
5362,2.144,12.802,304.24,-0.75208,3.6947,16.007,0.071678,-0.10995,-0.34269,-0.053186,-0.055738,-0.018386,1.25,1.25,1.25,1.25,0,0,0,0,0,0
5368,2.0866,12.76,304.49,-0.75194,3.6949,16.004,0.071784,-0.10989,-0.34263,-0.063394,-0.057362,-0.017284,1.25,1.25,1.25,1.25,0,0,0,0,0,0
5370,2.0293,12.718,304.73,-0.75181,3.6952,16.002,0.07189,-0.10984,-0.34257,-0.073602,-0.058986,-0.016182,1.25,1.25,1.25,1.25,0,0,0,0,0,0
5372,1.9719,12.676,304.97,-0.75167,3.6955,16,0.071995,-0.10978,-0.34251,-0.08381,-0.06061,-0.01508,1.25,1.25,1.25,1.25,0,0,0,0,0,0
5374,1.8743,12.585,305.62,-0.74724,3.6957,16.002,0.072344,-0.10952,-0.34251,-0.08381,-0.06061,-0.01508,1.25,1.25,1.25,1.25,0,0,0,0,0,0
5376,1.7889,12.504,306.25,-0.74821,3.6954,16.003,0.072641,-0.10941,-0.34257,-0.08381,-0.06061,-0.01508,1.25,1.25,1.25,1.25,0,0,0,0,0,0
5378,1.7155,12.433,306.85,-0.75304,3.6944,16.012,0.072564,-0.10939,-0.34267,-0.08381,-0.06061,-0.01508,1.25,1.25,1.25,1.25,0,0,0,0,0,0
5380,1.6524,12.37,307.44,-0.75511,3.6947,16.015,0.07234,-0.10952,-0.34272,-0.08381,-0.06061,-0.01508,1.25,1.25,1.25,1.25,0,0,0,0,0,0
5382,1.6009,12.314,308.01,-0.76424,3.6902,16.003,0.072202,-0.10971,-0.34273,-0.08381,-0.06061,-0.01508,1.25,1.25,1.25,1.25,0,0,0,0,0,0
5384,1.5589,12.267,308.56,-0.76936,3.6889,15.99,0.07234,-0.10984,-0.34271,-0.08381,-0.06061,-0.01508,1.25,1.25,1.25,1.25,0,0,0,0,0,0
5386,1.5505,12.254,308.91,-0.76627,3.6892,15.989,0.07229,-0.10997,-0.34269,-0.0957,-0.06061,-0.01247,1.25,1.25,1.25,1.25,0,0,0,0,0,0
5387,1.5421,12.242,309.26,-0.76319,3.6896,15.989,0.072239,-0.11011,-0.34268,-0.10759,-0.06061,-0.00986,1.25,1.25,1.25,1.25,0,0,0,0,0,0
5388,1.5292,12.22,309.94,-0.76194,3.6906,15.993,0.072199,-0.11022,-0.34256,-0.10759,-0.06061,-0.00986,1.25,1.25,1.25,1.25,0,0,0,0,0,0
5390,1.5194,12.203,310.6,-0.75888,3.6906,15.998,0.072183,-0.11033,-0.3424,-0.10759,-0.06061,-0.00986,1.25,1.25,1.25,1.25,0,0,0,0,0,0
5392,1.5131,12.19,311.24,-0.75926,3.6936,15.997,0.07193,-0.1105,-0.34241,-0.10759,-0.06061,-0.00986,1.25,1.25,1.25,1.25,0,0,0,0,0,0
5393,1.5108,12.185,311.55,-0.75579,3.695,15.993,0.071877,-0.11058,-0.34241,-0.10759,-0.06061,-0.00986,1.25,1.25,1.25,1.25,0,0,0,0,0,0
5394,1.5084,12.181,311.86,-0.75232,3.6964,15.988,0.071823,-0.11066,-0.34241,-0.10759,-0.06061,-0.00986,1.25,1.25,1.25,1.25,0,0,0,0,0,0
5396,1.5064,12.175,312.46,-0.75183,3.6983,16.001,0.071622,-0.11085,-0.34234,-0.10759,-0.06061,-0.00986,1.25,1.25,1.25,1.25,0,0,0,0,0,0
5398,1.5075,12.172,313.04,-0.75287,3.6966,16.002,0.071854,-0.11058,-0.3423,-0.10759,-0.06061,-0.00986,1.25,1.25,1.25,1.25,0,0,0,0,0,0
5400,1.5123,12.17,313.61,-0.75705,3.6935,15.997,0.07225,-0.11029,-0.34228,-0.10759,-0.06061,-0.00986,1.25,1.25,1.25,1.25,0,0,0,0,0,0
5402,1.5518,12.219,313.84,-0.75366,3.6929,16.004,0.072328,-0.11014,-0.34233,-0.08149,-0.06467,-0.00493,1.25,1.25,1.25,1.25,0,0,0,0,0,0
5404,1.5894,12.263,314.07,-0.75459,3.6921,16.014,0.072618,-0.11016,-0.34235,-0.08149,-0.06467,-0.00493,1.25,1.25,1.25,1.25,0,0,0,0,0,0
5406,1.6248,12.304,314.28,-0.75443,3.691,16.031,0.072784,-0.11014,-0.34237,-0.08149,-0.06467,-0.00493,1.25,1.25,1.25,1.25,0,0,0,0,0,0
5408,1.6583,12.343,314.49,-0.75415,3.6944,16.034,0.072659,-0.11009,-0.34234,-0.08149,-0.06467,-0.00493,1.25,1.25,1.25,1.25,0,0,0,0,0,0
5410,1.6893,12.38,314.7,-0.75143,3.6971,16.034,0.072419,-0.11026,-0.34239,-0.08149,-0.06467,-0.00493,1.25,1.25,1.25,1.25,0,0,0,0,0,0
5412,1.7188,12.415,314.89,-0.7513,3.6969,16.035,0.072559,-0.11019,-0.34249,-0.08149,-0.06467,-0.00493,1.25,1.25,1.25,1.25,0,0,0,0,0,0
5414,1.7468,12.448,315.08,-0.75097,3.6966,16.022,0.072233,-0.11033,-0.34257,-0.08149,-0.06467,-0.00493,1.25,1.25,1.25,1.25,0,0,0,0,0,0
5416,1.7729,12.479,315.26,-0.74848,3.6928,16.005,0.071994,-0.11049,-0.34255,-0.08149,-0.06467,-0.00493,1.25,1.25,1.25,1.25,0,0,0,0,0,0
5418,1.7474,12.444,315.48,-0.74592,3.692,16.012,0.071871,-0.11044,-0.34265,-0.04147,-0.03393,-0.01392,1.25,1.25,1.25,1.25,0,0,0,0,0,0
5420,1.7246,12.415,315.7,-0.7394,3.6917,16.009,0.071905,-0.11041,-0.34275,-0.04147,-0.03393,-0.01392,1.25,1.25,1.25,1.25,0,0,0,0,0,0
5422,1.7065,12.391,315.91,-0.74086,3.6931,16.016,0.072049,-0.11038,-0.34278,-0.04147,-0.03393,-0.01392,1.25,1.25,1.25,1.25,0,0,0,0,0,0
5424,1.6925,12.371,316.11,-0.74213,3.6939,16.022,0.072249,-0.11032,-0.34283,-0.04147,-0.03393,-0.01392,1.25,1.25,1.25,1.25,0,0,0,0,0,0
5426,1.6828,12.357,316.3,-0.74549,3.6994,16.03,0.072084,-0.11051,-0.3428,-0.04147,-0.03393,-0.01392,1.25,1.25,1.25,1.25,0,0,0,0,0,0
5428,1.6752,12.346,316.48,-0.74308,3.7014,16.025,0.072173,-0.11061,-0.34276,-0.04147,-0.03393,-0.01392,1.25,1.25,1.25,1.25,0,0,0,0,0,0
5430,1.6679,12.341,316.66,-0.7346,3.7008,15.996,0.07243,-0.11068,-0.34261,-0.04147,-0.03393,-0.01392,1.25,1.25,1.25,1.25,0,0,0,0,0,0
5432,1.6631,12.338,316.83,-0.7348,3.6981,15.993,0.072437,-0.11085,-0.34245,-0.04147,-0.03393,-0.01392,1.25,1.25,1.25,1.25,0,0,0,0,0,0
5434,1.7999,12.484,316.38,-0.74059,3.702,16.005,0.072718,-0.11074,-0.34233,-0.06177,-0.07801,-0.01073,1.25,1.25,1.25,1.25,0,0,0,0,0,0
5436,1.92,12.612,315.95,-0.74333,3.702,16,0.073022,-0.11056,-0.34222,-0.06177,-0.07801,-0.01073,1.25,1.25,1.25,1.25,0,0,0,0,0,0
5438,2.0242,12.721,315.54,-0.74342,3.6966,15.999,0.073216,-0.1107,-0.34215,-0.06177,-0.07801,-0.01073,1.25,1.25,1.25,1.25,0,0,0,0,0,0
5440,2.1117,12.813,315.16,-0.73599,3.6912,15.993,0.073068,-0.11074,-0.34216,-0.06177,-0.07801,-0.01073,1.25,1.25,1.25,1.25,0,0,0,0,0,0
5442,2.1877,12.891,314.79,-0.73832,3.69,16.003,0.072973,-0.11066,-0.34227,-0.06177,-0.07801,-0.01073,1.25,1.25,1.25,1.25,0,0,0,0,0,0
5444,2.2533,12.957,314.45,-0.73974,3.686,16,0.073213,-0.11057,-0.3424,-0.06177,-0.07801,-0.01073,1.25,1.25,1.25,1.25,0,0,0,0,0,0
5446,2.308,13.013,314.12,-0.73637,3.6872,16,0.073278,-0.11077,-0.34231,-0.06177,-0.07801,-0.01073,1.25,1.25,1.25,1.25,0,0,0,0,0,0
5448,2.3533,13.063,313.81,-0.73381,3.6904,15.985,0.072597,-0.11107,-0.3423,-0.06177,-0.07801,-0.01073,1.25,1.25,1.25,1.25,0,0,0,0,0,0
5450,2.2997,13.014,313.9,-0.73086,3.6899,15.981,0.072114,-0.1113,-0.34239,-0.04669,-0.04611,-0.01682,1.25,1.25,1.25,1.25,0,0,0,0,0,0
5452,2.2527,12.97,313.98,-0.73242,3.688,15.992,0.07221,-0.11119,-0.3424,-0.04669,-0.04611,-0.01682,1.25,1.25,1.25,1.25,0,0,0,0,0,0
5454,2.2128,12.931,314.06,-0.73736,3.6879,16.003,0.072311,-0.11126,-0.34232,-0.04669,-0.04611,-0.01682,1.25,1.25,1.25,1.25,0,0,0,0,0,0
5456,2.1761,12.896,314.13,-0.73319,3.689,16.017,0.072417,-0.11135,-0.34222,-0.04669,-0.04611,-0.01682,1.25,1.25,1.25,1.25,0,0,0,0,0,0
5458,2.1432,12.865,314.2,-0.73178,3.6878,16.031,0.072492,-0.11144,-0.34217,-0.04669,-0.04611,-0.01682,1.25,1.25,1.25,1.25,0,0,0,0,0,0
5459,2.1286,12.851,314.24,-0.73063,3.6861,16.028,0.072749,-0.11125,-0.34218,-0.04669,-0.04611,-0.01682,1.25,1.25,1.25,1.25,0,0,0,0,0,0
5460,2.1139,12.836,314.27,-0.72948,3.6845,16.025,0.073007,-0.11107,-0.3422,-0.04669,-0.04611,-0.01682,1.25,1.25,1.25,1.25,0,0,0,0,0,0
5462,2.0886,12.812,314.33,-0.73068,3.6847,16.034,0.073401,-0.11088,-0.34219,-0.04669,-0.04611,-0.01682,1.25,1.25,1.25,1.25,0,0,0,0,0,0
5464,2.0662,12.791,314.4,-0.73006,3.6871,16.037,0.073278,-0.11092,-0.34219,-0.04669,-0.04611,-0.01682,1.25,1.25,1.25,1.25,0,0,0,0,0,0
5466,2.1953,12.904,313.74,-0.7263,3.6859,16.034,0.073061,-0.11081,-0.34227,-0.06119,-0.09454,-0.00783,1.25,1.25,1.25,1.25,0,0,0,0,0,0
5468,2.3042,12.999,313.13,-0.72534,3.684,16.034,0.073321,-0.1105,-0.34249,-0.06119,-0.09454,-0.00783,1.25,1.25,1.25,1.25,0,0,0,0,0,0
5470,2.3967,13.079,312.55,-0.72784,3.6831,16.03,0.07345,-0.11035,-0.34264,-0.06119,-0.09454,-0.00783,1.25,1.25,1.25,1.25,0,0,0,0,0,0
5472,2.4741,13.141,312,-0.72901,3.6783,16.043,0.073326,-0.11041,-0.3427,-0.06119,-0.09454,-0.00783,1.25,1.25,1.25,1.25,0,0,0,0,0,0
5474,2.5401,13.191,311.48,-0.73504,3.677,16.05,0.072931,-0.11046,-0.34276,-0.06119,-0.09454,-0.00783,1.25,1.25,1.25,1.25,0,0,0,0,0,0
5476,2.5947,13.229,310.99,-0.7372,3.6729,16.058,0.072744,-0.11067,-0.34274,-0.06119,-0.09454,-0.00783,1.25,1.25,1.25,1.25,0,0,0,0,0,0
5478,2.6399,13.259,310.53,-0.74043,3.6727,16.057,0.072259,-0.11105,-0.34283,-0.06119,-0.09454,-0.00783,1.25,1.25,1.25,1.25,0,0,0,0,0,0
5480,2.6747,13.281,310.09,-0.73717,3.672,16.05,0.071842,-0.11135,-0.34286,-0.06119,-0.09454,-0.00783,1.25,1.25,1.25,1.25,0,0,0,0,0,0
5482,3.8,13.524,308.13,-0.73676,3.6711,16.057,0.071634,-0.11157,-0.34275,0.0087,-0.03741,-0.01218,1.25,1.25,1.25,1.25,0,0,0,0,0,0
5484,4.8504,13.735,306.11,-0.73677,3.6748,16.053,0.071408,-0.11164,-0.34256,0.0087,-0.03741,-0.01218,1.25,1.25,1.25,1.25,0,0,0,0,0,0
5486,5.8087,13.907,304,-0.73447,3.678,16.051,0.071024,-0.11184,-0.3425,0.0087,-0.03741,-0.01218,1.25,1.25,1.25,1.25,0,0,0,0,0,0
5488,6.6623,14.035,301.82,-0.73889,3.6757,16.045,0.070641,-0.11189,-0.34252,0.0087,-0.03741,-0.01218,1.25,1.25,1.25,1.25,0,0,0,0,0,0
5490,7.3921,14.117,299.55,-0.73884,3.6744,16.041,0.070745,-0.11196,-0.34251,0.0087,-0.03741,-0.01218,1.25,1.25,1.25,1.25,0,0,0,0,0,0
5492,7.9849,14.155,297.22,-0.74189,3.6772,16.038,0.071099,-0.11192,-0.34244,0.0087,-0.03741,-0.01218,1.25,1.25,1.25,1.25,0,0,0,0,0,0
5494,8.4285,14.148,294.84,-0.74149,3.679,16.035,0.070906,-0.11218,-0.34247,0.0087,-0.03741,-0.01218,1.25,1.25,1.25,1.25,0,0,0,0,0,0
5496,8.7175,14.092,292.41,-0.73919,3.673,16.046,0.070518,-0.11235,-0.3427,0.0087,-0.03741,-0.01218,1.25,1.25,1.25,1.25,0,0,0,0,0,0
5498,7.9243,13.817,293.11,-0.73919,3.6723,16.045,0.070404,-0.11238,-0.34281,-0.06061,-0.07308,-0.0261,1.25,1.25,1.25,1.25,0,0,0,0,0,0
5500,7.1976,13.57,293.78,-0.74203,3.6738,16.029,0.070218,-0.11239,-0.34283,-0.06061,-0.07308,-0.0261,1.25,1.25,1.25,1.25,0,0,0,0,0,0
5502,6.5345,13.347,294.43,-0.74315,3.6753,16.042,0.070427,-0.11221,-0.34295,-0.06061,-0.07308,-0.0261,1.25,1.25,1.25,1.25,0,0,0,0,0,0
5504,5.9319,13.148,295.05,-0.74502,3.6738,16.045,0.070559,-0.11198,-0.34298,-0.06061,-0.07308,-0.0261,1.25,1.25,1.25,1.25,0,0,0,0,0,0
5506,5.3856,12.971,295.65,-0.74579,3.6734,16.048,0.070414,-0.11196,-0.34302,-0.06061,-0.07308,-0.0261,1.25,1.25,1.25,1.25,0,0,0,0,0,0
5508,4.8894,12.814,296.22,-0.73856,3.6728,16.049,0.07031,-0.11199,-0.34297,-0.06061,-0.07308,-0.0261,1.25,1.25,1.25,1.25,0,0,0,0,0,0
5510,4.442,12.676,296.78,-0.73871,3.6742,16.05,0.070436,-0.11181,-0.34301,-0.06061,-0.07308,-0.0261,1.25,1.25,1.25,1.25,0,0,0,0,0,0
5512,4.0413,12.556,297.31,-0.74308,3.6753,16.043,0.070699,-0.11165,-0.34283,-0.06061,-0.07308,-0.0261,1.25,1.25,1.25,1.25,0,0,0,0,0,0
5513,3.8966,12.546,297.4,-0.74138,3.6735,16.039,0.070766,-0.11171,-0.34274,-0.04611,-0.06322,-0.02146,1.25,1.25,1.25,1.25,0,0,0,0,0,0
5514,3.7519,12.537,297.5,-0.73968,3.6718,16.035,0.070832,-0.11177,-0.34265,-0.03161,-0.05336,-0.01682,1.25,1.25,1.25,1.25,0,0,0,0,0,0
5516,3.4941,12.521,297.68,-0.73354,3.6713,16.046,0.070711,-0.11199,-0.34258,-0.03161,-0.05336,-0.01682,1.25,1.25,1.25,1.25,0,0,0,0,0,0
5518,3.2644,12.511,297.84,-0.72665,3.6731,16.052,0.071014,-0.11184,-0.34262,-0.03161,-0.05336,-0.01682,1.25,1.25,1.25,1.25,0,0,0,0,0,0
5520,3.0634,12.504,298,-0.72957,3.6776,16.066,0.071258,-0.11167,-0.34264,-0.03161,-0.05336,-0.01682,1.25,1.25,1.25,1.25,0,0,0,0,0,0
5522,2.8888,12.5,298.15,-0.73518,3.679,16.081,0.071334,-0.11161,-0.34265,-0.03161,-0.05336,-0.01682,1.25,1.25,1.25,1.25,0,0,0,0,0,0
5524,2.7354,12.497,298.28,-0.73391,3.6752,16.081,0.071048,-0.1117,-0.34274,-0.03161,-0.05336,-0.01682,1.25,1.25,1.25,1.25,0,0,0,0,0,0
5526,2.5992,12.495,298.41,-0.72819,3.6691,16.074,0.07141,-0.11153,-0.34287,-0.03161,-0.05336,-0.01682,1.25,1.25,1.25,1.25,0,0,0,0,0,0
5528,2.483,12.496,298.53,-0.73371,3.6652,16.053,0.071793,-0.1112,-0.34291,-0.03161,-0.05336,-0.01682,1.25,1.25,1.25,1.25,0,0,0,0,0,0
5530,2.5014,12.57,298.34,-0.74633,3.6672,16.054,0.071799,-0.11109,-0.34285,-0.01624,-0.03509,-0.00783,1.25,1.25,1.25,1.25,0,0,0,0,0,0
5532,2.5137,12.632,298.15,-0.74509,3.6644,16.056,0.071636,-0.11091,-0.34287,-0.01624,-0.03509,-0.00783,1.25,1.25,1.25,1.25,0,0,0,0,0,0
5534,2.5195,12.683,297.98,-0.74157,3.663,16.075,0.072029,-0.11051,-0.34292,-0.01624,-0.03509,-0.00783,1.25,1.25,1.25,1.25,0,0,0,0,0,0
5536,2.5213,12.725,297.81,-0.74124,3.6654,16.089,0.072252,-0.11027,-0.34294,-0.01624,-0.03509,-0.00783,1.25,1.25,1.25,1.25,0,0,0,0,0,0
5538,2.5186,12.763,297.66,-0.73803,3.6701,16.097,0.07264,-0.11008,-0.34279,-0.01624,-0.03509,-0.00783,1.25,1.25,1.25,1.25,0,0,0,0,0,0
5540,2.5114,12.795,297.51,-0.73391,3.676,16.114,0.072569,-0.11008,-0.34263,-0.01624,-0.03509,-0.00783,1.25,1.25,1.25,1.25,0,0,0,0,0,0
5542,2.5019,12.823,297.37,-0.73241,3.6759,16.112,0.072375,-0.10999,-0.34255,-0.01624,-0.03509,-0.00783,1.25,1.25,1.25,1.25,0,0,0,0,0,0
5544,2.4919,12.846,297.24,-0.73419,3.675,16.103,0.072259,-0.11012,-0.34249,-0.01624,-0.03509,-0.00783,1.25,1.25,1.25,1.25,0,0,0,0,0,0
5546,2.2783,12.645,298.35,-0.73334,3.6785,16.086,0.072573,-0.10996,-0.34245,-0.0841,-0.04002,-0.01653,1.25,1.25,1.25,1.25,0,0,0,0,0,0
5548,2.0854,12.462,299.44,-0.73555,3.6785,16.073,0.072585,-0.10974,-0.34253,-0.0841,-0.04002,-0.01653,1.25,1.25,1.25,1.25,0,0,0,0,0,0
5550,1.9127,12.294,300.51,-0.7408,3.677,16.061,0.072361,-0.10995,-0.34253,-0.0841,-0.04002,-0.01653,1.25,1.25,1.25,1.25,0,0,0,0,0,0
5552,1.7596,12.142,301.55,-0.74848,3.6756,16.061,0.072599,-0.1098,-0.34264,-0.0841,-0.04002,-0.01653,1.25,1.25,1.25,1.25,0,0,0,0,0,0
5554,1.6243,12.003,302.56,-0.75443,3.6744,16.065,0.072507,-0.10981,-0.3426,-0.0841,-0.04002,-0.01653,1.25,1.25,1.25,1.25,0,0,0,0,0,0
5556,1.5046,11.877,303.55,-0.75639,3.6724,16.065,0.07238,-0.11002,-0.34247,-0.0841,-0.04002,-0.01653,1.25,1.25,1.25,1.25,0,0,0,0,0,0
5558,1.4018,11.763,304.52,-0.76739,3.673,16.07,0.072131,-0.11023,-0.34235,-0.0841,-0.04002,-0.01653,1.25,1.25,1.25,1.25,0,0,0,0,0,0
5560,1.3125,11.662,305.46,-0.769,3.6707,16.056,0.071791,-0.11025,-0.34245,-0.0841,-0.04002,-0.01653,1.25,1.25,1.25,1.25,0,0,0,0,0,0
5562,1.2511,11.615,306.15,-0.76554,3.6639,16.051,0.071967,-0.11027,-0.34238,-0.07511,-0.04988,-0.01566,1.25,1.25,1.25,1.25,0,0,0,0,0,0
5564,1.2001,11.575,306.83,-0.76825,3.6613,16.055,0.072361,-0.1102,-0.34238,-0.07511,-0.04988,-0.01566,1.25,1.25,1.25,1.25,0,0,0,0,0,0
5566,1.1569,11.543,307.48,-0.76422,3.664,16.055,0.072968,-0.11003,-0.34223,-0.07511,-0.04988,-0.01566,1.25,1.25,1.25,1.25,0,0,0,0,0,0
5568,1.1221,11.517,308.11,-0.76479,3.6673,16.056,0.07289,-0.10999,-0.34218,-0.07511,-0.04988,-0.01566,1.25,1.25,1.25,1.25,0,0,0,0,0,0
5570,1.0949,11.498,308.73,-0.76548,3.6654,16.048,0.072844,-0.10988,-0.34218,-0.07511,-0.04988,-0.01566,1.25,1.25,1.25,1.25,0,0,0,0,0,0
5572,1.0745,11.483,309.32,-0.76522,3.6654,16.048,0.073087,-0.1097,-0.34213,-0.07511,-0.04988,-0.01566,1.25,1.25,1.25,1.25,0,0,0,0,0,0
5574,1.0594,11.474,309.9,-0.76273,3.6667,16.052,0.073641,-0.10951,-0.34201,-0.07511,-0.04988,-0.01566,1.25,1.25,1.25,1.25,0,0,0,0,0,0
5576,1.0495,11.468,310.45,-0.76228,3.6673,16.064,0.073653,-0.10953,-0.34198,-0.07511,-0.04988,-0.01566,1.25,1.25,1.25,1.25,0,0,0,0,0,0
1612,0.53917,1.9133,178.79,-0.45814,2.2688,9.6953,0.033127,-0.047943,-0.1653,2.8735e-16,2.8735e-16,2.8735e-16,1.25,1.25,1.25,1.25,0,0,0,0,0,0
5578,2.1338,12.031,308.45,-0.76627,3.6644,16.059,0.073819,-0.10932,-0.34198,-0.00493,-0.0812,-0.02262,1.25,1.25,1.25,1.25,0,0,0,0,0,0
5580,3.1023,12.524,306.44,-0.77027,3.6634,16.041,0.073975,-0.10908,-0.34207,-0.00493,-0.0812,-0.02262,1.25,1.25,1.25,1.25,0,0,0,0,0,0
5582,3.9313,12.937,304.43,-0.76731,3.6667,16.047,0.073714,-0.10914,-0.34211,-0.00493,-0.0812,-0.02262,1.25,1.25,1.25,1.25,0,0,0,0,0,0
5584,4.6081,13.266,302.45,-0.76582,3.6671,16.054,0.073385,-0.10918,-0.34231,-0.00493,-0.0812,-0.02262,1.25,1.25,1.25,1.25,0,0,0,0,0,0
5586,5.129,13.514,300.52,-0.76219,3.6688,16.055,0.073417,-0.10917,-0.34234,-0.00493,-0.0812,-0.02262,1.25,1.25,1.25,1.25,0,0,0,0,0,0
5588,5.5061,13.685,298.67,-0.76657,3.6698,16.069,0.073596,-0.10902,-0.34233,-0.00493,-0.0812,-0.02262,1.25,1.25,1.25,1.25,0,0,0,0,0,0
1614,1.0612,3.8105,177.54,-0.56566,2.8227,12.045,0.046826,-0.069389,-0.2207,2.8735e-16,2.8735e-16,2.8735e-16,1.25,1.25,1.25,1.25,0,0,0,0,0,0
5590,5.7487,13.791,296.92,-0.76002,3.6703,16.074,0.073498,-0.10901,-0.3424,-0.00493,-0.0812,-0.02262,1.25,1.25,1.25,1.25,0,0,0,0,0,0
5592,5.8829,13.848,295.28,-0.75945,3.673,16.084,0.07355,-0.10913,-0.34247,-0.00493,-0.0812,-0.02262,1.25,1.25,1.25,1.25,0,0,0,0,0,0
5594,5.3678,13.69,295.29,-0.75712,3.6725,16.081,0.073467,-0.1094,-0.34234,-0.01421,-0.03393,-0.01363,1.25,1.25,1.25,1.25,0,0,0,0,0,0
5596,4.9244,13.557,295.29,-0.75748,3.6718,16.084,0.07307,-0.10976,-0.34225,-0.01421,-0.03393,-0.01363,1.25,1.25,1.25,1.25,0,0,0,0,0,0
5598,4.542,13.444,295.28,-0.75487,3.6695,16.092,0.073027,-0.10972,-0.34229,-0.01421,-0.03393,-0.01363,1.25,1.25,1.25,1.25,0,0,0,0,0,0
5600,4.2133,13.348,295.26,-0.75333,3.6657,16.082,0.072875,-0.1096,-0.34243,-0.01421,-0.03393,-0.01363,1.25,1.25,1.25,1.25,0,0,0,0,0,0
5712,0.76792,11.252,308.98,-0.7421,3.6558,16.001,0.071782,-0.11016,-0.34244,-0.0667,-0.03509,-0.02233,1.25,1.25,1.25,1.25,0,0,0,0,0,0
5602,3.9341,13.268,295.24,-0.75901,3.6634,16.061,0.072947,-0.10945,-0.34259,-0.01421,-0.03393,-0.01363,1.25,1.25,1.25,1.25,0,0,0,0,0,0
5604,3.6975,13.203,295.21,-0.76513,3.6645,16.05,0.072959,-0.10935,-0.34275,-0.01421,-0.03393,-0.01363,1.25,1.25,1.25,1.25,0,0,0,0,0,0
5606,3.493,13.148,295.17,-0.76218,3.6605,16.043,0.073037,-0.10931,-0.34282,-0.01421,-0.03393,-0.01363,1.25,1.25,1.25,1.25,0,0,0,0,0,0
5608,3.3177,13.102,295.13,-0.76294,3.6617,16.039,0.072818,-0.10924,-0.3429,-0.01421,-0.03393,-0.01363,1.25,1.25,1.25,1.25,0,0,0,0,0,0
5610,2.992,12.942,295.56,-0.76334,3.6638,16.032,0.072832,-0.10926,-0.34287,-0.0203,-0.02987,-0.01247,1.25,1.25,1.25,1.25,0,0,0,0,0,0
5612,2.7093,12.807,295.96,-0.76492,3.6682,16.035,0.072699,-0.1093,-0.34289,-0.0203,-0.02987,-0.01247,1.25,1.25,1.25,1.25,0,0,0,0,0,0
1618,2.053,7.5024,174.92,-0.62986,3.2084,13.708,0.056407,-0.083912,-0.26982,2.8735e-16,2.8735e-16,2.8735e-16,1.25,1.25,1.25,1.25,0,0,0,0,0,0
5614,2.4634,12.692,296.34,-0.76211,3.6722,16.038,0.072561,-0.10925,-0.3429,-0.0203,-0.02987,-0.01247,1.25,1.25,1.25,1.25,0,0,0,0,0,0
5616,2.2491,12.595,296.71,-0.75607,3.6747,16.039,0.072898,-0.10923,-0.34286,-0.0203,-0.02987,-0.01247,1.25,1.25,1.25,1.25,0,0,0,0,0,0
5618,2.066,12.514,297.06,-0.75891,3.6768,16.05,0.072999,-0.10905,-0.34278,-0.0203,-0.02987,-0.01247,1.25,1.25,1.25,1.25,0,0,0,0,0,0
5620,1.909,12.447,297.39,-0.75765,3.6812,16.051,0.072781,-0.10919,-0.34261,-0.0203,-0.02987,-0.01247,1.25,1.25,1.25,1.25,0,0,0,0,0,0
5622,1.7734,12.392,297.7,-0.75174,3.6806,16.048,0.072619,-0.10923,-0.34252,-0.0203,-0.02987,-0.01247,1.25,1.25,1.25,1.25,0,0,0,0,0,0
5624,1.6574,12.346,298,-0.74652,3.6767,16.032,0.0728,-0.10899,-0.34245,-0.0203,-0.02987,-0.01247,1.25,1.25,1.25,1.25,0,0,0,0,0,0
1620,2.5126,9.2661,173.54,-0.64086,3.2937,14.098,0.059623,-0.089218,-0.28135,2.8735e-16,2.8735e-16,2.8735e-16,1.25,1.25,1.25,1.25,0,0,0,0,0,0
5626,1.9836,12.541,297.39,-0.74018,3.6759,16.021,0.072807,-0.10895,-0.34231,-0.0174,-0.05597,-0.01624,1.25,1.25,1.25,1.25,0,0,0,0,0,0
5628,2.2455,12.702,296.82,-0.74082,3.6804,16.016,0.072822,-0.10888,-0.34219,-0.0174,-0.05597,-0.01624,1.25,1.25,1.25,1.25,0,0,0,0,0,0
5630,2.4524,12.831,296.29,-0.73913,3.6812,16.016,0.072689,-0.10894,-0.34217,-0.0174,-0.05597,-0.01624,1.25,1.25,1.25,1.25,0,0,0,0,0,0
5632,2.6157,12.934,295.79,-0.74178,3.682,16.014,0.072625,-0.10889,-0.34218,-0.0174,-0.05597,-0.01624,1.25,1.25,1.25,1.25,0,0,0,0,0,0
5634,2.7444,13.018,295.33,-0.74791,3.6856,16.014,0.07282,-0.10889,-0.34211,-0.0174,-0.05597,-0.01624,1.25,1.25,1.25,1.25,0,0,0,0,0,0
5636,2.8454,13.08,294.91,-0.75566,3.681,16.025,0.072923,-0.10886,-0.34212,-0.0174,-0.05597,-0.01624,1.25,1.25,1.25,1.25,0,0,0,0,0,0
5638,2.9206,13.128,294.5,-0.7564,3.68,16.02,0.073105,-0.10882,-0.34214,-0.0174,-0.05597,-0.01624,1.25,1.25,1.25,1.25,0,0,0,0,0,0
5640,2.9766,13.163,294.13,-0.76107,3.6758,16.011,0.072936,-0.10904,-0.34216,-0.0174,-0.05597,-0.01624,1.25,1.25,1.25,1.25,0,0,0,0,0,0
5642,2.6665,12.962,294.85,-0.7641,3.6674,15.994,0.072697,-0.10918,-0.3422,-0.08062,-0.08323,-0.02958,1.25,1.25,1.25,1.25,0,0,0,0,0,0
5644,2.3908,12.782,295.55,-0.7658,3.665,15.999,0.072485,-0.10946,-0.34219,-0.08062,-0.08323,-0.02958,1.25,1.25,1.25,1.25,0,0,0,0,0,0
5646,2.1446,12.622,296.23,-0.76012,3.6658,16.007,0.07244,-0.10967,-0.34217,-0.08062,-0.08323,-0.02958,1.25,1.25,1.25,1.25,0,0,0,0,0,0
5648,1.9241,12.479,296.88,-0.74985,3.6624,16.008,0.072227,-0.10982,-0.3421,-0.08062,-0.08323,-0.02958,1.25,1.25,1.25,1.25,0,0,0,0,0,0
5650,1.7303,12.353,297.51,-0.74983,3.6609,16.005,0.072276,-0.10997,-0.3421,-0.08062,-0.08323,-0.02958,1.25,1.25,1.25,1.25,0,0,0,0,0,0
5652,1.5607,12.242,298.12,-0.74928,3.66,16,0.072161,-0.1101,-0.34208,-0.08062,-0.08323,-0.02958,1.25,1.25,1.25,1.25,0,0,0,0,0,0
5654,1.4121,12.145,298.7,-0.74571,3.6608,16.012,0.072072,-0.11014,-0.3421,-0.08062,-0.08323,-0.02958,1.25,1.25,1.25,1.25,0,0,0,0,0,0
5656,1.2825,12.062,299.27,-0.74191,3.6653,16.024,0.072124,-0.11007,-0.34217,-0.08062,-0.08323,-0.02958,1.25,1.25,1.25,1.25,0,0,0,0,0,0
5658,1.4202,12.181,299.14,-0.74065,3.6668,16.045,0.072101,-0.11023,-0.34213,-0.02523,-0.05075,-0.01798,1.25,1.25,1.25,1.25,0,0,0,0,0,0
5660,1.5391,12.282,299.03,-0.74582,3.665,16.04,0.071747,-0.1104,-0.34208,-0.02523,-0.05075,-0.01798,1.25,1.25,1.25,1.25,0,0,0,0,0,0
5662,1.6426,12.369,298.92,-0.75178,3.6632,16.019,0.071489,-0.11044,-0.34207,-0.02523,-0.05075,-0.01798,1.25,1.25,1.25,1.25,0,0,0,0,0,0
5664,1.7317,12.444,298.82,-0.75573,3.6637,16.018,0.071642,-0.11046,-0.34203,-0.02523,-0.05075,-0.01798,1.25,1.25,1.25,1.25,0,0,0,0,0,0
5666,1.8051,12.507,298.72,-0.75138,3.6595,16.009,0.071814,-0.11038,-0.34203,-0.02523,-0.05075,-0.01798,1.25,1.25,1.25,1.25,0,0,0,0,0,0
5668,1.8658,12.559,298.64,-0.74874,3.6557,16.004,0.071636,-0.1105,-0.3421,-0.02523,-0.05075,-0.01798,1.25,1.25,1.25,1.25,0,0,0,0,0,0
5670,1.9181,12.601,298.56,-0.7535,3.6546,16.026,0.071631,-0.11064,-0.34213,-0.02523,-0.05075,-0.01798,1.25,1.25,1.25,1.25,0,0,0,0,0,0
5672,1.9577,12.634,298.48,-0.74473,3.6533,16.044,0.071995,-0.11057,-0.34221,-0.02523,-0.05075,-0.01798,1.25,1.25,1.25,1.25,0,0,0,0,0,0
5674,1.6583,12.328,299.43,-0.73825,3.6532,16.06,0.072262,-0.11065,-0.34226,-0.04756,-0.03016,-0.01885,1.25,1.25,1.25,1.25,0,0,0,0,0,0
5676,1.3906,12.054,300.36,-0.7311,3.6532,16.062,0.072296,-0.11074,-0.34221,-0.04756,-0.03016,-0.01885,1.25,1.25,1.25,1.25,0,0,0,0,0,0
5678,1.1551,11.807,301.27,-0.73456,3.6512,16.07,0.072233,-0.11051,-0.34226,-0.04756,-0.03016,-0.01885,1.25,1.25,1.25,1.25,0,0,0,0,0,0
5680,0.95004,11.587,302.15,-0.73964,3.6493,16.075,0.072429,-0.11028,-0.34234,-0.04756,-0.03016,-0.01885,1.25,1.25,1.25,1.25,0,0,0,0,0,0
5682,0.77233,11.392,303,-0.74167,3.647,16.061,0.072577,-0.11028,-0.3423,-0.04756,-0.03016,-0.01885,1.25,1.25,1.25,1.25,0,0,0,0,0,0
5684,0.61893,11.22,303.83,-0.74168,3.6449,16.064,0.072523,-0.11028,-0.34217,-0.04756,-0.03016,-0.01885,1.25,1.25,1.25,1.25,0,0,0,0,0,0
5686,0.48885,11.07,304.63,-0.74504,3.6471,16.061,0.072403,-0.11024,-0.34218,-0.04756,-0.03016,-0.01885,1.25,1.25,1.25,1.25,0,0,0,0,0,0
5688,0.37842,10.939,305.41,-0.74225,3.6455,16.051,0.072279,-0.1101,-0.34218,-0.04756,-0.03016,-0.01885,1.25,1.25,1.25,1.25,0,0,0,0,0,0
5690,0.53364,11.116,305.43,-0.73623,3.6461,16.052,0.072474,-0.10989,-0.34223,-0.04988,-0.06699,-0.01856,1.25,1.25,1.25,1.25,0,0,0,0,0,0
5692,0.67289,11.275,305.45,-0.73579,3.6501,16.053,0.072267,-0.11001,-0.34218,-0.04988,-0.06699,-0.01856,1.25,1.25,1.25,1.25,0,0,0,0,0,0
5694,0.79848,11.418,305.47,-0.73774,3.6545,16.065,0.072219,-0.1101,-0.34221,-0.04988,-0.06699,-0.01856,1.25,1.25,1.25,1.25,0,0,0,0,0,0
5696,0.91164,11.546,305.49,-0.73871,3.6546,16.069,0.072091,-0.11017,-0.34223,-0.04988,-0.06699,-0.01856,1.25,1.25,1.25,1.25,0,0,0,0,0,0
5698,1.0125,11.661,305.52,-0.73596,3.6544,16.057,0.071767,-0.11045,-0.34231,-0.04988,-0.06699,-0.01856,1.25,1.25,1.25,1.25,0,0,0,0,0,0
5700,1.1057,11.764,305.54,-0.74284,3.6549,16.047,0.071656,-0.11064,-0.34235,-0.04988,-0.06699,-0.01856,1.25,1.25,1.25,1.25,0,0,0,0,0,0
5702,1.1895,11.858,305.57,-0.74248,3.6548,16.036,0.071636,-0.11075,-0.34229,-0.04988,-0.06699,-0.01856,1.25,1.25,1.25,1.25,0,0,0,0,0,0
5704,1.265,11.943,305.6,-0.74214,3.6549,16.028,0.071624,-0.11076,-0.34229,-0.04988,-0.06699,-0.01856,1.25,1.25,1.25,1.25,0,0,0,0,0,0
5706,1.1113,11.736,306.48,-0.74259,3.6521,16.015,0.071324,-0.11074,-0.34238,-0.0667,-0.03509,-0.02233,1.25,1.25,1.25,1.25,0,0,0,0,0,0
5708,0.97895,11.553,307.34,-0.74606,3.651,16.008,0.071274,-0.11063,-0.34254,-0.0667,-0.03509,-0.02233,1.25,1.25,1.25,1.25,0,0,0,0,0,0
5710,0.8656,11.393,308.17,-0.74706,3.6559,16.003,0.071557,-0.1104,-0.34255,-0.0667,-0.03509,-0.02233,1.25,1.25,1.25,1.25,0,0,0,0,0,0
1616,1.5672,5.6783,176.25,-0.60953,3.0678,13.105,0.052654,-0.079359,-0.25021,2.8735e-16,2.8735e-16,2.8735e-16,1.25,1.25,1.25,1.25,0,0,0,0,0,0
5714,0.68591,11.128,309.76,-0.74282,3.6522,16.014,0.071575,-0.10998,-0.34237,-0.0667,-0.03509,-0.02233,1.25,1.25,1.25,1.25,0,0,0,0,0,0
5716,0.61926,11.02,310.53,-0.74695,3.6523,16.017,0.071645,-0.10978,-0.34235,-0.0667,-0.03509,-0.02233,1.25,1.25,1.25,1.25,0,0,0,0,0,0
5718,0.56615,10.927,311.26,-0.74911,3.651,16.019,0.072105,-0.10933,-0.34237,-0.0667,-0.03509,-0.02233,1.25,1.25,1.25,1.25,0,0,0,0,0,0
5720,0.52387,10.849,311.98,-0.74706,3.6527,16.026,0.072348,-0.1093,-0.34233,-0.0667,-0.03509,-0.02233,1.25,1.25,1.25,1.25,0,0,0,0,0,0
5722,1.0081,11.31,311.38,-0.73636,3.6525,16.018,0.072468,-0.1093,-0.3424,-0.02436,-0.04437,-0.02262,1.25,1.25,1.25,1.25,0,0,0,0,0,0
5724,1.4112,11.696,310.83,-0.7375,3.6526,16.01,0.072335,-0.10944,-0.3425,-0.02436,-0.04437,-0.02262,1.25,1.25,1.25,1.25,0,0,0,0,0,0
5726,1.741,12.016,310.32,-0.73307,3.6522,15.999,0.072241,-0.10963,-0.34256,-0.02436,-0.04437,-0.02262,1.25,1.25,1.25,1.25,0,0,0,0,0,0
5728,2.0098,12.279,309.84,-0.73384,3.6525,16.008,0.07232,-0.10967,-0.34265,-0.02436,-0.04437,-0.02262,1.25,1.25,1.25,1.25,0,0,0,0,0,0
5730,2.2267,12.494,309.4,-0.73472,3.6554,16.016,0.072153,-0.10963,-0.34263,-0.02436,-0.04437,-0.02262,1.25,1.25,1.25,1.25,0,0,0,0,0,0
5732,2.3998,12.667,308.99,-0.73564,3.6573,16.028,0.072078,-0.10975,-0.34275,-0.02436,-0.04437,-0.02262,1.25,1.25,1.25,1.25,0,0,0,0,0,0
5734,2.5391,12.802,308.61,-0.74187,3.651,16.033,0.072005,-0.1097,-0.34289,-0.02436,-0.04437,-0.02262,1.25,1.25,1.25,1.25,0,0,0,0,0,0
5736,2.6495,12.909,308.24,-0.74622,3.649,16.027,0.072316,-0.1095,-0.34285,-0.02436,-0.04437,-0.02262,1.25,1.25,1.25,1.25,0,0,0,0,0,0
5738,2.5658,12.863,308.31,-0.74709,3.6471,16.031,0.072673,-0.10942,-0.34285,-0.04756,-0.05916,-0.02175,1.25,1.25,1.25,1.25,0,0,0,0,0,0
5740,2.4921,12.824,308.36,-0.74708,3.6497,16.031,0.073251,-0.10914,-0.34286,-0.04756,-0.05916,-0.02175,1.25,1.25,1.25,1.25,0,0,0,0,0,0
5742,2.428,12.788,308.42,-0.74911,3.6458,16.036,0.073699,-0.10889,-0.34283,-0.04756,-0.05916,-0.02175,1.25,1.25,1.25,1.25,0,0,0,0,0,0
5744,2.3713,12.759,308.47,-0.74844,3.6477,16.033,0.073577,-0.10888,-0.34277,-0.04756,-0.05916,-0.02175,1.25,1.25,1.25,1.25,0,0,0,0,0,0
5746,2.3214,12.734,308.51,-0.74826,3.6522,16.04,0.073649,-0.10884,-0.34284,-0.04756,-0.05916,-0.02175,1.25,1.25,1.25,1.25,0,0,0,0,0,0
5748,2.2769,12.715,308.56,-0.74656,3.6597,16.052,0.074044,-0.10847,-0.34289,-0.04756,-0.05916,-0.02175,1.25,1.25,1.25,1.25,0,0,0,0,0,0
5750,2.2358,12.701,308.6,-0.74076,3.6647,16.046,0.073767,-0.10851,-0.34284,-0.04756,-0.05916,-0.02175,1.25,1.25,1.25,1.25,0,0,0,0,0,0
5752,2.2002,12.687,308.64,-0.74257,3.6609,16.054,0.073393,-0.10868,-0.34287,-0.04756,-0.05916,-0.02175,1.25,1.25,1.25,1.25,0,0,0,0,0,0
5754,3.0312,13.088,306.87,-0.74479,3.6605,16.053,0.073351,-0.10871,-0.34293,-0.01102,-0.06844,-0.0203,1.25,1.25,1.25,1.25,0,0,0,0,0,0
5756,3.7077,13.406,305.15,-0.74635,3.6646,16.05,0.073214,-0.10872,-0.34302,-0.01102,-0.06844,-0.0203,1.25,1.25,1.25,1.25,0,0,0,0,0,0
5758,4.2319,13.643,303.52,-0.7426,3.664,16.043,0.072947,-0.10909,-0.34304,-0.01102,-0.06844,-0.0203,1.25,1.25,1.25,1.25,0,0,0,0,0,0
5760,4.6223,13.807,301.97,-0.74634,3.6601,16.047,0.072339,-0.10939,-0.34315,-0.01102,-0.06844,-0.0203,1.25,1.25,1.25,1.25,0,0,0,0,0,0
5762,4.8991,13.908,300.52,-0.75281,3.6584,16.065,0.072364,-0.10935,-0.34321,-0.01102,-0.06844,-0.0203,1.25,1.25,1.25,1.25,0,0,0,0,0,0
5764,5.0782,13.964,299.16,-0.75158,3.6565,16.059,0.072601,-0.10915,-0.34328,-0.01102,-0.06844,-0.0203,1.25,1.25,1.25,1.25,0,0,0,0,0,0
5766,5.1762,13.983,297.9,-0.74636,3.6555,16.069,0.072163,-0.10944,-0.34328,-0.01102,-0.06844,-0.0203,1.25,1.25,1.25,1.25,0,0,0,0,0,0
5768,5.2156,13.977,296.72,-0.74821,3.6588,16.075,0.071763,-0.10968,-0.34318,-0.01102,-0.06844,-0.0203,1.25,1.25,1.25,1.25,0,0,0,0,0,0
5770,4.8758,13.81,297.33,-0.74527,3.6584,16.069,0.071439,-0.10991,-0.34311,-0.09106,-0.09454,-0.01102,1.25,1.25,1.25,1.25,0,0,0,0,0,0
5772,4.5657,13.658,297.92,-0.74781,3.657,16.067,0.071342,-0.11005,-0.34305,-0.09106,-0.09454,-0.01102,1.25,1.25,1.25,1.25,0,0,0,0,0,0
5774,4.2819,13.519,298.49,-0.7452,3.6522,16.058,0.071336,-0.11016,-0.34299,-0.09106,-0.09454,-0.01102,1.25,1.25,1.25,1.25,0,0,0,0,0,0
5776,4.0233,13.395,299.04,-0.74564,3.6535,16.047,0.071359,-0.1103,-0.3429,-0.09106,-0.09454,-0.01102,1.25,1.25,1.25,1.25,0,0,0,0,0,0
5778,3.7857,13.283,299.57,-0.73722,3.6515,16.033,0.071375,-0.11046,-0.34283,-0.09106,-0.09454,-0.01102,1.25,1.25,1.25,1.25,0,0,0,0,0,0
5780,3.5702,13.182,300.08,-0.73926,3.6521,16.051,0.071368,-0.11037,-0.3429,-0.09106,-0.09454,-0.01102,1.25,1.25,1.25,1.25,0,0,0,0,0,0
5782,3.3741,13.089,300.57,-0.73794,3.653,16.077,0.071627,-0.11013,-0.34296,-0.09106,-0.09454,-0.01102,1.25,1.25,1.25,1.25,0,0,0,0,0,0
5784,3.197,13.005,301.04,-0.74016,3.6551,16.1,0.07191,-0.10979,-0.34296,-0.09106,-0.09454,-0.01102,1.25,1.25,1.25,1.25,0,0,0,0,0,0
5786,3.0939,12.987,301,-0.74086,3.6579,16.102,0.071855,-0.10963,-0.34303,-0.04147,-0.07047,-0.01189,1.25,1.25,1.25,1.25,0,0,0,0,0,0
5788,3.0021,12.973,300.95,-0.74201,3.6595,16.084,0.071742,-0.10948,-0.3431,-0.04147,-0.07047,-0.01189,1.25,1.25,1.25,1.25,0,0,0,0,0,0
5790,2.9203,12.96,300.91,-0.74266,3.6547,16.063,0.071934,-0.10924,-0.34317,-0.04147,-0.07047,-0.01189,1.25,1.25,1.25,1.25,0,0,0,0,0,0
5792,2.849,12.949,300.87,-0.74778,3.6524,16.045,0.072277,-0.10923,-0.3432,-0.04147,-0.07047,-0.01189,1.25,1.25,1.25,1.25,0,0,0,0,0,0
5794,2.7868,12.94,300.83,-0.75349,3.6546,16.047,0.072325,-0.10939,-0.3431,-0.04147,-0.07047,-0.01189,1.25,1.25,1.25,1.25,0,0,0,0,0,0
5796,2.7286,12.934,300.79,-0.74736,3.6574,16.044,0.072069,-0.10939,-0.34315,-0.04147,-0.07047,-0.01189,1.25,1.25,1.25,1.25,0,0,0,0,0,0
5798,2.6765,12.925,300.75,-0.74899,3.6546,16.055,0.071834,-0.10954,-0.34335,-0.04147,-0.07047,-0.01189,1.25,1.25,1.25,1.25,0,0,0,0,0,0
5800,2.6294,12.917,300.71,-0.74826,3.6515,16.049,0.071618,-0.10949,-0.34344,-0.04147,-0.07047,-0.01189,1.25,1.25,1.25,1.25,0,0,0,0,0,0
5802,2.4215,12.753,301.41,-0.74683,3.6525,16.036,0.071341,-0.10958,-0.34343,-0.0464,-0.0377,-0.01218,1.25,1.25,1.25,1.25,0,0,0,0,0,0
5803,2.3286,12.679,301.76,-0.74722,3.6543,16.041,0.071227,-0.10976,-0.34338,-0.0464,-0.0377,-0.01218,1.25,1.25,1.25,1.25,0,0,0,0,0,0
5804,2.2358,12.605,302.1,-0.74761,3.656,16.047,0.071113,-0.10994,-0.34333,-0.0464,-0.0377,-0.01218,1.25,1.25,1.25,1.25,0,0,0,0,0,0
5806,2.067,12.475,302.75,-0.73591,3.6612,16.06,0.070964,-0.11008,-0.34331,-0.0464,-0.0377,-0.01218,1.25,1.25,1.25,1.25,0,0,0,0,0,0
5808,1.9169,12.359,303.39,-0.73396,3.6597,16.052,0.070892,-0.11018,-0.34328,-0.0464,-0.0377,-0.01218,1.25,1.25,1.25,1.25,0,0,0,0,0,0
5810,1.7851,12.258,304.01,-0.73596,3.6602,16.039,0.071087,-0.11006,-0.34339,-0.0464,-0.0377,-0.01218,1.25,1.25,1.25,1.25,0,0,0,0,0,0
5812,1.6695,12.169,304.6,-0.73704,3.6631,16.05,0.071367,-0.10994,-0.34339,-0.0464,-0.0377,-0.01218,1.25,1.25,1.25,1.25,0,0,0,0,0,0
5814,1.5685,12.092,305.18,-0.73658,3.6669,16.056,0.071338,-0.10991,-0.34346,-0.0464,-0.0377,-0.01218,1.25,1.25,1.25,1.25,0,0,0,0,0,0
5816,1.4803,12.024,305.73,-0.73441,3.6638,16.059,0.07162,-0.10965,-0.34351,-0.0464,-0.0377,-0.01218,1.25,1.25,1.25,1.25,0,0,0,0,0,0
5818,2.2604,12.46,304.35,-0.73752,3.6595,16.06,0.072161,-0.10924,-0.34363,-0.01189,-0.05423,-0.01856,1.25,1.25,1.25,1.25,0,0,0,0,0,0
5820,2.8889,12.809,303.04,-0.73671,3.6561,16.042,0.072285,-0.10915,-0.3437,-0.01189,-0.05423,-0.01856,1.25,1.25,1.25,1.25,0,0,0,0,0,0
5822,3.3827,13.077,301.81,-0.74424,3.6546,16.044,0.072348,-0.10913,-0.34377,-0.01189,-0.05423,-0.01856,1.25,1.25,1.25,1.25,0,0,0,0,0,0
5824,3.7533,13.279,300.66,-0.74074,3.6551,16.042,0.072564,-0.10883,-0.34383,-0.01189,-0.05423,-0.01856,1.25,1.25,1.25,1.25,0,0,0,0,0,0
5826,4.0217,13.422,299.59,-0.73925,3.652,16.051,0.072996,-0.10847,-0.34388,-0.01189,-0.05423,-0.01856,1.25,1.25,1.25,1.25,0,0,0,0,0,0
5828,4.206,13.518,298.59,-0.73675,3.6488,16.061,0.073162,-0.10842,-0.34386,-0.01189,-0.05423,-0.01856,1.25,1.25,1.25,1.25,0,0,0,0,0,0
5830,4.3229,13.577,297.66,-0.73385,3.6477,16.071,0.07325,-0.1084,-0.34379,-0.01189,-0.05423,-0.01856,1.25,1.25,1.25,1.25,0,0,0,0,0,0
5832,4.391,13.611,296.8,-0.7381,3.6506,16.077,0.073182,-0.10827,-0.34379,-0.01189,-0.05423,-0.01856,1.25,1.25,1.25,1.25,0,0,0,0,0,0
5834,4.0386,13.324,297.99,-0.73965,3.652,16.078,0.073373,-0.10797,-0.34379,-0.05626,-0.02407,-0.01305,1.25,1.25,1.25,1.25,0,0,0,0,0,0
5836,3.7128,13.058,299.15,-0.73595,3.6514,16.074,0.073648,-0.10787,-0.34369,-0.05626,-0.02407,-0.01305,1.25,1.25,1.25,1.25,0,0,0,0,0,0
5838,3.4133,12.812,300.28,-0.73637,3.6513,16.075,0.073896,-0.10782,-0.34372,-0.05626,-0.02407,-0.01305,1.25,1.25,1.25,1.25,0,0,0,0,0,0
5840,3.1396,12.586,301.4,-0.74008,3.6509,16.068,0.073902,-0.10779,-0.34374,-0.05626,-0.02407,-0.01305,1.25,1.25,1.25,1.25,0,0,0,0,0,0
5842,2.8888,12.378,302.48,-0.73756,3.6535,16.074,0.073982,-0.10764,-0.34369,-0.05626,-0.02407,-0.01305,1.25,1.25,1.25,1.25,0,0,0,0,0,0
5844,2.6596,12.188,303.54,-0.73477,3.6561,16.069,0.07367,-0.10785,-0.34365,-0.05626,-0.02407,-0.01305,1.25,1.25,1.25,1.25,0,0,0,0,0,0
5846,2.4512,12.016,304.58,-0.7347,3.6598,16.078,0.073327,-0.10807,-0.34376,-0.05626,-0.02407,-0.01305,1.25,1.25,1.25,1.25,0,0,0,0,0,0
5848,2.2635,11.859,305.59,-0.73885,3.6635,16.091,0.073095,-0.10827,-0.34383,-0.05626,-0.02407,-0.01305,1.25,1.25,1.25,1.25,0,0,0,0,0,0
5850,2.9383,12.307,303.99,-0.73748,3.6621,16.095,0.072934,-0.10835,-0.34393,-0.01073,-0.06003,-0.01653,1.25,1.25,1.25,1.25,0,0,0,0,0,0
5852,3.4802,12.669,302.48,-0.73978,3.6649,16.092,0.072938,-0.1085,-0.34394,-0.01073,-0.06003,-0.01653,1.25,1.25,1.25,1.25,0,0,0,0,0,0
