rtosTick,pitch,roll,yaw,ax,ay,az,gx,gy,gz,mx,my,mz,m1CMD,m2CMD,m3CMD,m4CMD,asp,asr,asy,rsp,rsr,rsy
4097,3.6147496700286865,11.795665740966797,233.66799926757812,-0.76337930560112,3.6854686737060547,15.980412006378174,14.542498111724854,-21.98891544342041,-68.51781845092773,0.031610000878572464,-0.03537999838590622,-0.023490000516176224,1160,1160,1160,1160,0,0,0,0,0,0
4098,3.799983978271485,11.760245323181152,232.77407836914062,-0.7664546966552734,3.686336040496826,15.985880851745605,14.564300537109375,-21.9699764251709,-68.50004577636719,0.031610000878572464,-0.03537999838590622,-0.023490000516176224,1160,1160,1160,1160,0,0,0,0,0,0
4099,3.814961075782776,11.802825927734375,232.01703643798828,-0.764465719461441,3.6860235929489136,15.98908805847168,14.553929328918457,-21.979111671447754,-68.48043823242188,0.031610000878572464,-0.03537999838590622,-0.023490000516176224,1160,1160,1160,1160,0,0,0,0,0,0
4100,3.8299381732940674,11.845406532287598,231.25999450683597,-0.7624767422676086,3.6857111454010014,15.992295265197756,14.543558120727539,-21.98824691772461,-68.46083068847656,0.031610000878572464,-0.03537999838590622,-0.023490000516176224,1160,1160,1160,1160,0,0,0,0,0,0
4102,3.7140822410583496,11.97355842590332,229.9982452392578,-0.7590700387954712,3.677546501159668,15.993127822875975,14.515881538391113,-21.962772369384766,-68.43719482421875,0.031610000878572464,-0.03537999838590622,-0.023490000516176224,1160,1160,1160,1160,0,0,0,0,0,0
4104,3.5478301048278813,12.108437538146973,228.9444274902344,-0.7515362501144409,3.670213222503662,15.98146915435791,14.513859748840332,-21.954626083374023,-68.42145538330078,0.031610000878572464,-0.03537999838590622,-0.023490000516176224,1160,1160,1160,1160,0,0,0,0,0,0
4106,2.796228170394897,12.138537406921387,230.65887451171875,-0.7471120953559875,3.662774801254273,15.955031394958494,14.390923500061035,-21.988840103149414,-68.42079162597656,-0.06872999668121338,-0.06901999562978745,-0.015370000153779984,1160,1160,1160,1160,0,0,0,0,0,0
4108,2.0845980644226074,12.157752990722654,232.36502075195312,-0.7458437085151672,3.65744686126709,15.958144187927244,14.332534790039062,-21.993513107299805,-68.423095703125,-0.06872999668121338,-0.06901999562978745,-0.015370000153779984,1160,1160,1160,1160,0,0,0,0,0,0
4110,1.411022067070007,12.165507316589355,234.0586853027344,-0.7372896671295166,3.649163007736206,15.956950187683105,14.350604057312012,-21.938989639282227,-68.44012451171875,-0.06872999668121338,-0.06901999562978745,-0.015370000153779984,1160,1160,1160,1160,0,0,0,0,0,0
4112,0.7756637930870056,12.163640975952148,235.7395477294922,-0.7308838367462158,3.644952535629273,15.954598426818848,14.41254997253418,-21.9288387298584,-68.44646453857422,-0.06872999668121338,-0.06901999562978745,-0.015370000153779984,1160,1160,1160,1160,0,0,0,0,0,0
4114,0.1790378838777542,12.153979301452635,237.40728759765625,-0.7289416193962097,3.647959232330322,15.9590425491333,14.380254745483398,-21.94782066345215,-68.44971466064453,-0.06872999668121338,-0.06901999562978745,-0.015370000153779984,1160,1160,1160,1160,0,0,0,0,0,0
4116,-0.3784454464912415,12.13858699798584,239.06146240234372,-0.7312080860137941,3.657050371170044,15.965474128723145,14.416494369506836,-21.98094940185547,-68.46321868896484,-0.06872999668121338,-0.06901999562978745,-0.015370000153779984,1160,1160,1160,1160,0,0,0,0,0,0
4118,-0.8962355256080627,12.117053031921387,240.7017822265625,-0.7381606698036194,3.661942481994629,15.969882011413574,14.412138938903807,-21.964046478271484,-68.49859619140625,-0.06872999668121338,-0.06901999562978745,-0.015370000153779984,1160,1160,1160,1160,0,0,0,0,0,0
4120,-1.3752603530883791,12.0908203125,242.3275909423828,-0.7442620396614075,3.6715822219848633,15.981552124023438,14.452136993408205,-21.904001235961914,-68.52732086181639,-0.06872999668121338,-0.06901999562978745,-0.015370000153779984,1160,1160,1160,1160,0,0,0,0,0,0
4122,-2.1046380996704097,11.878458023071287,243.98731994628903,-0.7474251985549927,3.6735024452209473,15.983275413513185,14.45736026763916,-21.87876892089844,-68.53182220458984,-0.05770999938249587,-0.03683000057935715,-0.019430000334978104,1160,1160,1160,1160,0,0,0,0,0,0
4124,-2.7776448726654053,11.669940948486328,245.64434814453125,-0.7608560919761658,3.677970170974731,15.99886703491211,14.437399864196776,-21.832258224487305,-68.55097198486328,-0.05770999938249587,-0.03683000057935715,-0.019430000334978104,1160,1160,1160,1160,0,0,0,0,0,0
4126,-3.3966884613037114,11.465497970581055,247.29586791992188,-0.7667937874794006,3.679746150970459,16.005056381225586,14.419333457946776,-21.83359909057617,-68.56381225585939,-0.05770999938249587,-0.03683000057935715,-0.019430000334978104,1160,1160,1160,1160,0,0,0,0,0,0
4128,-3.96440052986145,11.265421867370605,248.94009399414062,-0.7658405303955078,3.679701566696167,16.00724983215332,14.386896133422852,-21.89765167236328,-68.5306396484375,-0.05770999938249587,-0.03683000057935715,-0.019430000334978104,1160,1160,1160,1160,0,0,0,0,0,0
4130,-4.483029842376709,11.069539070129396,250.5754547119141,-0.7600989937782288,3.6758816242218018,16.004369735717773,14.32269287109375,-21.99799919128418,-68.49078369140625,-0.05770999938249587,-0.03683000057935715,-0.019430000334978104,1160,1160,1160,1160,0,0,0,0,0,0
4132,-4.954510688781738,10.87887191772461,252.20040893554688,-0.7506903409957886,3.672362327575684,15.996490478515625,14.309992790222168,-22.02181625366211,-68.46504211425781,-0.05770999938249587,-0.03683000057935715,-0.019430000334978104,1160,1160,1160,1160,0,0,0,0,0,0
4134,-5.378925323486328,10.693873405456543,253.81393432617188,-0.747147262096405,3.672269344329834,16.006046295166016,14.375741004943848,-22.023508071899414,-68.44574737548828,-0.05770999938249587,-0.03683000057935715,-0.019430000334978104,1160,1160,1160,1160,0,0,0,0,0,0
4136,-5.757763385772705,10.515389442443848,255.41477966308597,-0.7437015771865845,3.6725566387176514,16.010190963745114,14.423879623413086,-22.01914405822754,-68.41949462890625,-0.05770999938249587,-0.03683000057935715,-0.019430000334978104,1160,1160,1160,1160,0,0,0,0,0,0
4138,-5.873950004577638,10.466525077819824,256.98611450195307,-0.735404372215271,3.669490575790405,16.024179458618164,14.400196075439453,-22.02088165283203,-68.38346099853516,-0.07801000028848648,-0.05539000034332275,-0.015079999342560768,1160,1160,1160,1160,0,0,0,0,0,0
4140,-5.968932628631593,10.417024612426758,258.53884887695307,-0.7269400358200073,3.6694085597991934,16.021297454833984,14.378490447998047,-22.01776695251465,-68.38064575195311,-0.07801000028848648,-0.05539000034332275,-0.015079999342560768,1160,1160,1160,1160,0,0,0,0,0,0
4142,-6.041327953338622,10.36737060546875,260.0728759765625,-0.7284042239189148,3.6693274974823,16.022844314575195,14.389690399169922,-21.989370346069336,-68.40151214599611,-0.07801000028848648,-0.05539000034332275,-0.015079999342560768,1160,1160,1160,1160,0,0,0,0,0,0
4144,-6.091507911682129,10.31791877746582,261.5878295898437,-0.7327960133552551,3.667252540588379,16.020851135253903,14.427209854125975,-21.954221725463867,-68.40423583984375,-0.07801000028848648,-0.05539000034332275,-0.015079999342560768,1160,1160,1160,1160,0,0,0,0,0,0
4146,-6.120791912078857,10.270352363586426,263.08306884765625,-0.7370008826255798,3.6694333553314213,16.01502799987793,14.41673183441162,-21.981210708618164,-68.39361572265625,-0.07801000028848648,-0.05539000034332275,-0.015079999342560768,1160,1160,1160,1160,0,0,0,0,0,0
4148,-6.12951135635376,10.223957061767578,264.55831909179693,-0.7440577149391174,3.6683812141418457,16.015625,14.399100303649902,-21.908811569213867,-68.41864776611328,-0.07801000028848648,-0.05539000034332275,-0.015079999342560768,1160,1160,1160,1160,0,0,0,0,0,0
4150,-6.1183104515075675,10.179961204528807,266.01309204101557,-0.7536242604255676,3.6711835861206055,16.021818161010742,14.458545684814453,-21.829212188720703,-68.46234130859375,-0.07801000028848648,-0.05539000034332275,-0.015079999342560768,1160,1160,1160,1160,0,0,0,0,0,0
4152,-6.089893341064452,10.138160705566406,267.44711303710943,-0.7571231722831726,3.66944432258606,16.018470764160153,14.53001308441162,-21.8028564453125,-68.47264099121094,-0.07801000028848648,-0.05539000034332275,-0.015079999342560768,1160,1160,1160,1160,0,0,0,0,0,0
4154,-5.991762638092041,10.14427089691162,268.81423950195307,-0.7604596614837646,3.669901609420776,16.010074615478516,14.511473655700685,-21.81918334960937,-68.46499633789061,-0.08061999827623367,-0.06351000070571901,-0.013050000183284284,1160,1160,1160,1160,0,0,0,0,0,0
4156,-5.88613224029541,10.148487091064453,270.15997314453125,-0.7540749907493591,3.667165279388428,16.021759033203125,14.418094635009766,-21.86056137084961,-68.46343231201172,-0.08061999827623367,-0.06351000070571901,-0.013050000183284284,1160,1160,1160,1160,0,0,0,0,0,0
4158,-5.772597789764403,10.152021408081056,271.484130859375,-0.752680778503418,3.6685390472412114,16.042095184326172,14.40928840637207,-21.91570472717285,-68.45745849609375,-0.08061999827623367,-0.06351000070571901,-0.013050000183284284,1160,1160,1160,1160,0,0,0,0,0,0
4160,-5.652623653411865,10.15662956237793,272.786376953125,-0.7470378875732422,3.671769142150879,16.046236038208008,14.419839859008787,-21.903547286987305,-68.46488952636719,-0.08061999827623367,-0.06351000070571901,-0.013050000183284284,1160,1160,1160,1160,0,0,0,0,0,0
4162,-5.52566385269165,10.16244125366211,274.06649780273443,-0.7462332844734192,3.672929763793945,16.042675018310547,14.405092239379885,-21.91934585571289,-68.47660827636719,-0.08061999827623367,-0.06351000070571901,-0.013050000183284284,1160,1160,1160,1160,0,0,0,0,0,0
4164,-5.392934322357178,10.169486045837402,275.324462890625,-0.7439338564872742,3.6740102767944336,16.042577743530273,14.403935432434082,-21.986743927001953,-68.45265197753906,-0.08061999827623367,-0.06351000070571901,-0.013050000183284284,1160,1160,1160,1160,0,0,0,0,0,0
4166,-5.2569427490234375,10.179048538208008,276.56005859375,-0.7335855960845947,3.6766321659088135,16.029027938842773,14.395421981811525,-22.04453659057617,-68.40852355957031,-0.08061999827623367,-0.06351000070571901,-0.013050000183284284,1160,1160,1160,1160,0,0,0,0,0,0
4168,-5.116313934326172,10.189815521240234,277.77340698242193,-0.7311072349548341,3.677521944046021,16.034978866577152,14.44314670562744,-22.02291679382324,-68.38893890380861,-0.08061999827623367,-0.06351000070571901,-0.013050000183284284,1160,1160,1160,1160,0,0,0,0,0,0
4169,-5.0547935962677,10.209986209869385,278.2479248046875,-0.7300011217594147,3.6784420013427734,16.03599262237549,14.481256484985352,-22.012293815612793,-68.37566375732422,-0.06278499960899353,-0.05843500047922135,-0.016820000018924478,1160,1160,1160,1160,0,0,0,0,0,0
4170,-4.9932732582092285,10.230156898498537,278.72244262695307,-0.7288950085639954,3.6793620586395264,16.037006378173828,14.519366264343262,-22.001670837402344,-68.36238861083984,-0.04495000094175339,-0.053360000252723694,-0.02058999985456467,1160,1160,1160,1160,0,0,0,0,0,0
4172,-4.862281799316406,10.26887035369873,279.64993286132807,-0.733801007270813,3.680189847946167,16.038515090942386,14.543825149536133,-22.000093460083008,-68.34378051757811,-0.04495000094175339,-0.053360000252723694,-0.02058999985456467,1160,1160,1160,1160,0,0,0,0,0,0
4174,-4.723483085632324,10.30592441558838,280.5567626953125,-0.7409460544586182,3.675386667251587,16.021780014038086,14.54416561126709,-21.975624084472656,-68.3388671875,-0.04495000094175339,-0.053360000252723694,-0.02058999985456467,1160,1160,1160,1160,0,0,0,0,0,0
4176,-4.578726291656494,10.339407920837402,281.44345092773443,-0.7461792826652527,3.6688566207885738,16.031951904296875,14.612354278564453,-21.914175033569336,-68.35767364501953,-0.04495000094175339,-0.053360000252723694,-0.02058999985456467,1160,1160,1160,1160,0,0,0,0,0,0
4178,-4.4305453300476065,10.371161460876463,282.30987548828125,-0.7465196251869202,3.667222738265991,16.041057586669922,14.592074394226074,-21.912899017333984,-68.37461090087889,-0.04495000094175339,-0.053360000252723694,-0.02058999985456467,1160,1160,1160,1160,0,0,0,0,0,0
4180,-4.280026912689209,10.40022087097168,283.1563720703125,-0.7459273338317871,3.663629293441773,16.057952880859375,14.495521545410154,-21.91646957397461,-68.38823699951172,-0.04495000094175339,-0.053360000252723694,-0.02058999985456467,1160,1160,1160,1160,0,0,0,0,0,0
4182,-4.1263155937194815,10.428854942321776,283.9828796386719,-0.7504956126213074,3.666214942932129,16.075510025024414,14.44525146484375,-21.93445587158203,-68.40010070800781,-0.04495000094175339,-0.053360000252723694,-0.02058999985456467,1160,1160,1160,1160,0,0,0,0,0,0
4184,-3.971932172775269,10.45838451385498,284.7895202636719,-0.7480129599571228,3.66642165184021,16.066394805908207,14.422593116760256,-21.947307586669922,-68.4176025390625,-0.04495000094175339,-0.053360000252723694,-0.02058999985456467,1160,1160,1160,1160,0,0,0,0,0,0
4186,-3.7361567020416264,10.54675579071045,285.41845703125,-0.7395968437194824,3.666138172149658,16.068412780761722,14.376812934875488,-21.97079467773437,-68.43327331542969,-0.033059999346733086,-0.04814000055193901,-0.02029999904334545,1160,1160,1160,1160,0,0,0,0,0,0
4188,-3.5132884979248047,10.62891674041748,286.03302001953125,-0.7343805432319641,3.667102336883545,16.059497833251953,14.32019329071045,-22.014385223388672,-68.45745849609375,-0.033059999346733086,-0.04814000055193901,-0.02029999904334545,1160,1160,1160,1160,0,0,0,0,0,0
4190,-3.3019907474517822,10.705361366271973,286.63348388671875,-0.730297327041626,3.6680998802185063,16.058475494384766,14.41817855834961,-21.984840393066406,-68.46636962890625,-0.033059999346733086,-0.04814000055193901,-0.02029999904334545,1160,1160,1160,1160,0,0,0,0,0,0
4192,-3.0993263721466064,10.776775360107422,287.2198181152344,-0.7326582670211792,3.67031455039978,16.06288719177246,14.527374267578125,-21.95098114013672,-68.45738983154297,-0.033059999346733086,-0.04814000055193901,-0.02029999904334545,1160,1160,1160,1160,0,0,0,0,0,0
4194,-2.9052622318267822,10.844318389892578,287.7919921875,-0.7335031628608704,3.672858238220215,16.060054779052734,14.576740264892578,-21.946657180786133,-68.46630096435547,-0.033059999346733086,-0.04814000055193901,-0.02029999904334545,1160,1160,1160,1160,0,0,0,0,0,0
4196,-2.7189090251922607,10.907447814941406,288.3501892089844,-0.7351821064949036,3.6730768680572514,16.05974006652832,14.616214752197266,-21.89052963256836,-68.45436096191406,-0.033059999346733086,-0.04814000055193901,-0.02029999904334545,1160,1160,1160,1160,0,0,0,0,0,0
4198,-2.540795087814331,10.96763515472412,288.8943786621094,-0.734638512134552,3.6766374111175537,16.059633255004886,14.569306373596193,-21.913787841796875,-68.435302734375,-0.033059999346733086,-0.04814000055193901,-0.02029999904334545,1160,1160,1160,1160,0,0,0,0,0,0
4200,-2.369011878967285,11.02540397644043,289.42462158203125,-0.7377373576164246,3.678444862365722,16.049245834350586,14.501258850097654,-21.94147109985352,-68.43434906005861,-0.033059999346733086,-0.04814000055193901,-0.02029999904334545,1160,1160,1160,1160,0,0,0,0,0,0
4202,-1.1125857830047607,11.42693328857422,288.00799560546875,-0.7468184232711792,3.677621126174927,16.046459197998047,14.471519470214846,-21.966264724731445,-68.43045806884766,-0.0011599999852478506,-0.0710499957203865,-0.015370000153779984,1160,1160,1160,1160,0,0,0,0,0,0
4204,-0.033061016350984566,11.771484375,286.6651611328125,-0.7494494915008545,3.677947998046875,16.043815612792972,14.488139152526855,-21.99063491821289,-68.41633605957031,-0.0011599999852478506,-0.0710499957203865,-0.015370000153779984,1160,1160,1160,1160,0,0,0,0,0,0
4206,0.8612451553344727,12.059046745300293,285.4067077636719,-0.7473253011703491,3.678537607192993,16.038606643676758,14.508834838867188,-21.98683357238769,-68.42906951904297,-0.0011599999852478506,-0.0710499957203865,-0.015370000153779984,1160,1160,1160,1160,0,0,0,0,0,0
4208,1.5782692432403564,12.291556358337402,284.2408447265625,-0.7441384196281433,3.673772096633911,16.023651123046875,14.515813827514648,-21.978269577026367,-68.44007110595703,-0.0011599999852478506,-0.0710499957203865,-0.015370000153779984,1160,1160,1160,1160,0,0,0,0,0,0
4210,2.1409931182861333,12.476064682006836,283.17047119140625,-0.7497453689575195,3.671973705291748,16.0155029296875,14.444469451904295,-22.002426147460934,-68.45674133300781,-0.0011599999852478506,-0.0710499957203865,-0.015370000153779984,1160,1160,1160,1160,0,0,0,0,0,0
4212,2.5679702758789062,12.620375633239744,282.1925354003906,-0.7480747103691101,3.6686506271362314,15.999466896057127,14.41150188446045,-22.028583526611328,-68.46863555908203,-0.0011599999852478506,-0.0710499957203865,-0.015370000153779984,1160,1160,1160,1160,0,0,0,0,0,0
4214,2.8797051906585693,12.730389595031738,281.30056762695307,-0.7403823733329773,3.663783550262451,15.988226890563965,14.408731460571287,-22.03860664367676,-68.49060821533203,-0.0011599999852478506,-0.0710499957203865,-0.015370000153779984,1160,1160,1160,1160,0,0,0,0,0,0
4216,3.1006999015808105,12.811549186706545,280.48699951171875,-0.7358700037002563,3.659999132156372,15.992597579956055,14.435523986816404,-21.98451232910156,-68.50621795654297,-0.0011599999852478506,-0.0710499957203865,-0.015370000153779984,1160,1160,1160,1160,0,0,0,0,0,0
4218,2.605250120162964,12.697792053222654,281.0103759765625,-0.7387368679046631,3.6578638553619385,16.002782821655273,14.398319244384766,-21.95427703857422,-68.51705169677734,-0.01565999910235405,-0.03943999856710434,-0.018850000575184826,1160,1160,1160,1160,0,0,0,0,0,0
4220,2.1882925033569336,12.602967262268065,281.50750732421875,-0.742579996585846,3.6553454399108887,16.006355285644528,14.40910530090332,-21.93783187866211,-68.52767181396484,-0.01565999910235405,-0.03943999856710434,-0.018850000575184826,1160,1160,1160,1160,0,0,0,0,0,0
4222,1.8389313220977783,12.527087211608887,281.97900390625,-0.7417665123939514,3.6578478813171382,16.002779006958008,14.342955589294435,-21.936147689819336,-68.54544830322266,-0.01565999910235405,-0.03943999856710434,-0.018850000575184826,1160,1160,1160,1160,0,0,0,0,0,0
4224,1.5472424030303955,12.466337203979492,282.42620849609375,-0.7372158765792847,3.656516313552856,15.99672794342041,14.397683143615724,-21.89588737487793,-68.55399322509766,-0.01565999910235405,-0.03943999856710434,-0.018850000575184826,1160,1160,1160,1160,0,0,0,0,0,0
4226,1.308214545249939,12.418712615966795,282.8506774902344,-0.7395180463790894,3.65910005569458,16.003767013549805,14.374550819396973,-21.929912567138672,-68.53577423095703,-0.01565999910235405,-0.03943999856710434,-0.018850000575184826,1160,1160,1160,1160,0,0,0,0,0,0
4228,1.1150866746902466,12.386531829833984,283.2537841796875,-0.7424823641777039,3.6707460880279537,16.00711441040039,14.38436222076416,-21.925952911376953,-68.49726867675781,-0.01565999910235405,-0.03943999856710434,-0.018850000575184826,1160,1160,1160,1160,0,0,0,0,0,0
4230,0.9609226584434508,12.365827560424805,283.63702392578125,-0.7445734739303589,3.678729057312012,16.011360168457028,14.410188674926758,-21.91602897644043,-68.48320007324219,-0.01565999910235405,-0.03943999856710434,-0.018850000575184826,1160,1160,1160,1160,0,0,0,0,0,0
4232,0.8370142579078674,12.35072135925293,284.0018310546875,-0.7400115728378296,3.6795709133148193,16.0255126953125,14.445801734924315,-21.83509826660156,-68.47682189941406,-0.01565999910235405,-0.03943999856710434,-0.018850000575184826,1160,1160,1160,1160,0,0,0,0,0,0
4234,0.6246292591094971,12.166397094726562,285.2513122558594,-0.7388071417808533,3.6831459999084473,16.021934509277347,14.40690803527832,-21.837596893310547,-68.46761322021484,-0.11947999894618988,-0.07163000106811522,-0.024359999224543568,1160,1160,1160,1160,0,0,0,0,0,0
4236,0.4361375570297241,11.99816608428955,286.4791259765625,-0.7435717582702637,3.687018871307373,16.01686668395996,14.410134315490724,-21.855735778808594,-68.45417785644531,-0.11947999894618988,-0.07163000106811522,-0.024359999224543568,1160,1160,1160,1160,0,0,0,0,0,0
4238,0.2694872915744781,11.843626976013185,287.68310546875,-0.7457646727561951,3.6869721412658687,16.016820907592773,14.360188484191895,-21.88442039489746,-68.4425048828125,-0.11947999894618988,-0.07163000106811522,-0.024359999224543568,1160,1160,1160,1160,0,0,0,0,0,0
4240,0.12345452606678008,11.701690673828125,288.863037109375,-0.7472376823425293,3.682016134262085,16.00833511352539,14.40570068359375,-21.85711479187012,-68.45174407958984,-0.11947999894618988,-0.07163000106811522,-0.024359999224543568,1160,1160,1160,1160,0,0,0,0,0,0
4242,-0.002032625954598189,11.572352409362793,290.0187683105469,-0.7535505890846252,3.678845643997192,15.996850967407227,14.41042709350586,-21.85923385620117,-68.46668243408203,-0.11947999894618988,-0.07163000106811522,-0.024359999224543568,1160,1160,1160,1160,0,0,0,0,0,0
4244,-0.10916454344987868,11.455408096313475,291.1500549316406,-0.7557324171066284,3.675745248794556,15.979554176330565,14.419483184814453,-21.834775924682614,-68.47687530517578,-0.11947999894618988,-0.07163000106811522,-0.024359999224543568,1160,1160,1160,1160,0,0,0,0,0,0
4246,-0.19919024407863614,11.349550247192385,292.25701904296875,-0.7583816051483154,3.672715663909912,15.976512908935547,14.453421592712402,-21.809534072875977,-68.48243713378906,-0.11947999894618988,-0.07163000106811522,-0.024359999224543568,1160,1160,1160,1160,0,0,0,0,0,0
4248,-0.2735668420791626,11.25485610961914,293.3394775390625,-0.7595727443695068,3.670240640640259,15.965376853942873,14.495495796203613,-21.794376373291016,-68.4937744140625,-0.11947999894618988,-0.07163000106811522,-0.024359999224543568,1160,1160,1160,1160,0,0,0,0,0,0
4250,0.05007963627576828,11.47806167602539,293.1881408691406,-0.7572357058525085,3.670141220092773,15.966028213500975,14.579459190368652,-21.746906280517575,-68.49308013916016,-0.030159998685121536,-0.07481999695301056,-0.013919999822974205,1160,1160,1160,1160,0,0,0,0,0,0
4252,0.33159178495407104,11.670186042785645,293.0513000488281,-0.7541055083274841,3.664862871170044,15.975628852844238,14.618877410888672,-21.73162078857422,-68.48944854736328,-0.030159998685121536,-0.07481999695301056,-0.013919999822974205,1160,1160,1160,1160,0,0,0,0,0,0
4254,0.5755481719970703,11.836271286010742,292.9281921386719,-0.750336229801178,3.6631574630737305,15.987139701843262,14.61026096343994,-21.73952293395996,-68.50359344482422,-0.030159998685121536,-0.07481999695301056,-0.013919999822974205,1160,1160,1160,1160,0,0,0,0,0,0
4256,0.7888932228088379,11.980990409851074,292.8171691894531,-0.7528045177459717,3.665483713150024,15.999916076660154,14.644606590270994,-21.72798156738281,-68.49235534667969,-0.030159998685121536,-0.07481999695301056,-0.013919999822974205,1160,1160,1160,1160,0,0,0,0,0,0
4258,0.9747371673583984,12.109800338745115,292.71685791015625,-0.7536216974258423,3.673694610595703,16.005216598510742,14.61184787750244,-21.739564895629886,-68.46954345703125,-0.030159998685121536,-0.07481999695301056,-0.013919999822974205,1160,1160,1160,1160,0,0,0,0,0,0
4260,1.136289358139038,12.223166465759276,292.6259460449219,-0.7540866136550903,3.6783733367919917,16.011493682861328,14.531099319458008,-21.81247329711914,-68.45310211181639,-0.030159998685121536,-0.07481999695301056,-0.013919999822974205,1160,1160,1160,1160,0,0,0,0,0,0
4262,1.2750171422958374,12.323782920837402,292.5433654785156,-0.7501198053359985,3.683217287063599,16.012388229370114,14.549409866333008,-21.833457946777344,-68.44586944580078,-0.030159998685121536,-0.07481999695301056,-0.013919999822974205,1160,1160,1160,1160,0,0,0,0,0,0
4264,1.3937594890594482,12.413500785827635,292.4681396484375,-0.7454708814620972,3.6861162185668954,16.002508163452152,14.573234558105467,-21.83478164672852,-68.46830749511719,-0.030159998685121536,-0.07481999695301056,-0.013919999822974205,1160,1160,1160,1160,0,0,0,0,0,0
4266,1.0886127948760986,11.89594841003418,294.1061706542969,-0.7462923526763916,3.690299034118652,15.999691009521484,14.577384948730467,-21.88192367553711,-68.46370697021484,-0.05539000034332275,-0.003769999835640192,-0.019430000334978104,1160,1160,1160,1160,0,0,0,0,0,0
4268,0.8142459988594055,11.41836643218994,295.7321472167969,-0.7451785206794739,3.6936321258544917,15.97973918914795,14.584394454956055,-21.924631118774414,-68.44148254394531,-0.05539000034332275,-0.003769999835640192,-0.019430000334978104,1160,1160,1160,1160,0,0,0,0,0,0
4270,0.5699475407600403,10.977416038513184,297.33978271484375,-0.7469975352287292,3.696835994720459,15.981643676757812,14.55880355834961,-21.977466583251953,-68.40644073486328,-0.05539000034332275,-0.003769999835640192,-0.019430000334978104,1160,1160,1160,1160,0,0,0,0,0,0
4272,0.35373300313949585,10.570230484008787,298.92706298828125,-0.7463919520378113,3.6938157081604,15.98745346069336,14.474748611450195,-22.07884979248047,-68.39280700683594,-0.05539000034332275,-0.003769999835640192,-0.019430000334978104,1160,1160,1160,1160,0,0,0,0,0,0
4274,0.16360701620578766,10.196066856384276,300.492431640625,-0.7430989742279053,3.6930224895477295,16.001869201660153,14.476545333862305,-22.10730743408203,-68.39569854736328,-0.05539000034332275,-0.003769999835640192,-0.019430000334978104,1160,1160,1160,1160,0,0,0,0,0,0
4276,0.0001901549694593996,9.854339599609377,302.0346374511719,-0.7469537854194641,3.6919240951538086,16.007648468017578,14.518131256103516,-22.1268310546875,-68.39410400390625,-0.05539000034332275,-0.003769999835640192,-0.019430000334978104,1160,1160,1160,1160,0,0,0,0,0,0
4278,-0.13843153417110446,9.543394088745117,303.552490234375,-0.7487898468971252,3.68615460395813,16.000205993652347,14.502787590026855,-22.1580810546875,-68.37482452392578,-0.05539000034332275,-0.003769999835640192,-0.019430000334978104,1160,1160,1160,1160,0,0,0,0,0,0
4280,-0.2541190683841705,9.262795448303224,305.0449523925781,-0.7497178912162781,3.6846165657043457,15.99838161468506,14.483346939086914,-22.19362068176269,-68.34857177734375,-0.05539000034332275,-0.003769999835640192,-0.019430000334978104,1160,1160,1160,1160,0,0,0,0,0,0
4282,-0.23106887936592105,9.360435485839844,305.9474182128906,-0.7429695725440979,3.683761596679688,15.9872407913208,14.372859001159668,-22.25387954711914,-68.33470153808594,-0.08613000065088272,-0.0405999980866909,-0.01624000072479248,1160,1160,1160,1160,0,0,0,0,0,0
4284,-0.20396660268306727,9.454052925109863,306.8262939453125,-0.7402984499931335,3.679633140563965,15.984783172607422,14.369427680969238,-22.21658706665039,-68.35359954833984,-0.08613000065088272,-0.0405999980866909,-0.01624000072479248,1160,1160,1160,1160,0,0,0,0,0,0
4286,-0.17199628055095673,9.54426097869873,307.6833190917969,-0.743175208568573,3.677756309509277,15.99241542816162,14.38229274749756,-22.198034286499023,-68.36174774169922,-0.08613000065088272,-0.0405999980866909,-0.01624000072479248,1160,1160,1160,1160,0,0,0,0,0,0
4288,-0.13726234436035156,9.632490158081056,308.51861572265625,-0.7398389577865601,3.679753303527832,15.995351791381836,14.371291160583494,-22.208755493164066,-68.34906005859375,-0.08613000065088272,-0.0405999980866909,-0.01624000072479248,1160,1160,1160,1160,0,0,0,0,0,0
4290,-0.09967599809169768,9.71941375732422,309.33233642578125,-0.7386391758918762,3.6856985092163086,16.003883361816403,14.297088623046875,-22.23256492614746,-68.3720703125,-0.08613000065088272,-0.0405999980866909,-0.01624000072479248,1160,1160,1160,1160,0,0,0,0,0,0
4292,-0.0605527013540268,9.804705619812012,310.1247863769531,-0.7330535054206848,3.686976671218872,16.00136375427246,14.293782234191895,-22.227008819580078,-68.38279724121094,-0.08613000065088272,-0.0405999980866909,-0.01624000072479248,1160,1160,1160,1160,0,0,0,0,0,0
4294,-0.018800733610987663,9.887928009033203,310.89630126953125,-0.7325685620307922,3.6851499080657963,15.99778652191162,14.389371871948242,-22.195003509521484,-68.37704467773439,-0.08613000065088272,-0.0405999980866909,-0.01624000072479248,1160,1160,1160,1160,0,0,0,0,0,0
4296,0.02616359107196331,9.970277786254883,311.6470947265625,-0.7355266213417053,3.686332702636719,15.986398696899414,14.422465324401855,-22.175617218017575,-68.37438201904297,-0.08613000065088272,-0.0405999980866909,-0.01624000072479248,1160,1160,1160,1160,0,0,0,0,0,0
4298,0.853346049785614,9.984923362731934,310.5309143066406,-0.7327967882156372,3.6865723133087163,15.982048988342285,14.46961784362793,-22.10589599609375,-68.39095306396484,0.03189999982714653,-0.019430000334978104,-0.014209999702870848,1160,1160,1160,1160,0,0,0,0,0,0
4300,1.6758366823196411,9.989970207214355,309.39971923828125,-0.7391121387481691,3.688856363296509,15.997142791748047,14.51724624633789,-22.05306053161621,-68.39978790283203,0.03189999982714653,-0.019430000334978104,-0.014209999702870848,1160,1160,1160,1160,0,0,0,0,0,0
4302,2.491368770599365,9.985078811645508,308.2473449707031,-0.7399770021438599,3.69330096244812,15.998103141784668,14.57862949371338,-22.01199150085449,-68.40992736816406,0.03189999982714653,-0.019430000334978104,-0.014209999702870848,1160,1160,1160,1160,0,0,0,0,0,0
4304,3.2980637550354004,9.969035148620604,307.07257080078125,-0.7377841472625732,3.6909003257751465,16.002069473266598,14.57971477508545,-21.980077743530273,-68.42722320556639,0.03189999982714653,-0.019430000334978104,-0.014209999702870848,1160,1160,1160,1160,0,0,0,0,0,0
4306,4.094493389129639,9.942559242248537,305.8737487792969,-0.7334092855453491,3.689958095550537,15.995312690734865,14.588154792785645,-21.9257869720459,-68.43677520751953,0.03189999982714653,-0.019430000334978104,-0.014209999702870848,1160,1160,1160,1160,0,0,0,0,0,0
4308,4.8791537284851065,9.905644416809082,304.6505432128906,-0.7354206442832947,3.6909782886505127,16.00034523010254,14.569859504699707,-21.9436092376709,-68.44761657714844,0.03189999982714653,-0.019430000334978104,-0.014209999702870848,1160,1160,1160,1160,0,0,0,0,0,0
4310,5.648892879486084,9.859113693237305,303.4023132324219,-0.7311769127845764,3.693918466567993,16.001808166503903,14.622754096984865,-21.97198486328125,-68.41983032226561,0.03189999982714653,-0.019430000334978104,-0.014209999702870848,1160,1160,1160,1160,0,0,0,0,0,0
4312,6.401941776275635,9.802021026611328,302.1282653808594,-0.7294244170188904,3.6899933815002437,16.001522064208984,14.647982597351074,-21.947996139526367,-68.417724609375,0.03189999982714653,-0.019430000334978104,-0.014209999702870848,1160,1160,1160,1160,0,0,0,0,0,0
4314,5.988820552825928,9.986340522766113,302.7113037109375,-0.7282479405403137,3.6884229183197017,16.003746032714847,14.656455039978027,-21.93166160583496,-68.42156982421875,-0.06061000004410744,-0.054519999772310264,-0.011889999732375143,1160,1160,1160,1160,0,0,0,0,0,0
4316,5.604367733001709,10.155435562133787,303.2666320800781,-0.7247294783592224,3.6860783100128174,15.99925136566162,14.69425106048584,-21.879413604736328,-68.4356689453125,-0.06061000004410744,-0.054519999772310264,-0.011889999732375143,1160,1160,1160,1160,0,0,0,0,0,0
4318,5.247651100158691,10.310517311096193,303.8011779785156,-0.7213081121444702,3.683030605316162,16.011302947998047,14.6973237991333,-21.863052368164066,-68.45537567138672,-0.06061000004410744,-0.054519999772310264,-0.011889999732375143,1160,1160,1160,1160,0,0,0,0,0,0
4320,4.916727066040039,10.453839302062988,304.31573486328125,-0.7158704400062561,3.6825342178344727,16.016487121582028,14.67230224609375,-21.86748504638672,-68.47319030761719,-0.06061000004410744,-0.054519999772310264,-0.011889999732375143,1160,1160,1160,1160,0,0,0,0,0,0
4322,4.612303733825684,10.586727142333984,304.81103515625,-0.7185630202293396,3.6844773292541504,16.028388977050778,14.675836563110352,-21.90199851989746,-68.48176574707031,-0.06061000004410744,-0.054519999772310264,-0.011889999732375143,1160,1160,1160,1160,0,0,0,0,0,0
4324,4.331577777862549,10.70971393585205,305.2877502441406,-0.7161030173301697,3.681951999664306,16.025518417358402,14.64389705657959,-21.92988586425781,-68.48721313476561,-0.06061000004410744,-0.054519999772310264,-0.011889999732375143,1160,1160,1160,1160,0,0,0,0,0,0
4326,4.0744500160217285,10.82475757598877,305.7465515136719,-0.7183276414871216,3.684340000152588,16.02549934387207,14.583126068115234,-21.948848724365234,-68.50435638427734,-0.06061000004410744,-0.054519999772310264,-0.011889999732375143,1160,1160,1160,1160,0,0,0,0,0,0
4328,3.8393459320068364,10.933505058288574,306.18817138671875,-0.7202270627021791,3.6902363300323486,16.026138305664062,14.539860725402832,-21.962656021118164,-68.51522827148439,-0.06061000004410744,-0.054519999772310264,-0.011889999732375143,1160,1160,1160,1160,0,0,0,0,0,0
4330,3.662536144256592,10.995335578918457,307.26861572265625,-0.7137638926506042,3.6895771026611333,16.021093368530273,14.562410354614258,-21.955717086791992,-68.51406097412111,-0.1032399982213974,-0.03248000144958496,-0.011020000092685223,1160,1160,1160,1160,0,0,0,0,0,0
4332,3.499437093734741,11.05166244506836,308.3248291015625,-0.7203399538993835,3.688502311706543,16.032800674438473,14.516632080078125,-21.980266571044922,-68.52472686767578,-0.1032399982213974,-0.03248000144958496,-0.011020000092685223,1160,1160,1160,1160,0,0,0,0,0,0
4334,3.349217414855957,11.104077339172363,309.35577392578125,-0.7257454395294191,3.6886918544769287,16.026906967163086,14.409867286682127,-22.04420280456543,-68.51598358154297,-0.1032399982213974,-0.03248000144958496,-0.011020000092685223,1160,1160,1160,1160,0,0,0,0,0,0
4336,3.2101590633392334,11.152260780334473,310.36163330078125,-0.7265170216560364,3.6867189407348633,16.028165817260742,14.32010269165039,-22.075672149658203,-68.51332855224611,-0.1032399982213974,-0.03248000144958496,-0.011020000092685223,1160,1160,1160,1160,0,0,0,0,0,0
4338,3.0815203189849854,11.197746276855467,311.3424987792969,-0.7260141968727112,3.6868958473205566,16.023717880249027,14.32515811920166,-22.09332656860352,-68.51515960693361,-0.1032399982213974,-0.03248000144958496,-0.011020000092685223,1160,1160,1160,1160,0,0,0,0,0,0
4340,2.962410926818848,11.239038467407227,312.298583984375,-0.7251294851303101,3.68350601196289,16.035619735717773,14.247504234313965,-22.163759231567386,-68.49333190917969,-0.1032399982213974,-0.03248000144958496,-0.011020000092685223,1160,1160,1160,1160,0,0,0,0,0,0
4342,2.8527276515960693,11.276843070983887,313.23004150390625,-0.7256542444229126,3.680517435073853,16.044225692749027,14.144936561584473,-22.23780059814453,-68.47933959960939,-0.1032399982213974,-0.03248000144958496,-0.011020000092685223,1160,1160,1160,1160,0,0,0,0,0,0
4344,2.7510206699371342,11.311906814575195,314.1370849609375,-0.7220755219459534,3.677272319793701,16.046592712402347,14.063705444335938,-22.311777114868164,-68.44940948486328,-0.1032399982213974,-0.03248000144958496,-0.011020000092685223,1160,1160,1160,1160,0,0,0,0,0,0
4346,2.7748053073883057,11.552414894104006,313.6563415527344,-0.7212334275245667,3.679711818695069,16.062484741210938,14.031386375427244,-22.368791580200195,-68.42455291748047,-0.06322000175714493,-0.08990000188350677,-0.012760000303387642,1160,1160,1160,1160,0,0,0,0,0,0
4348,2.79146409034729,11.76418685913086,313.2004699707031,-0.7177104353904724,3.676969766616821,16.04660987854004,14.018924713134766,-22.382598876953125,-68.39577484130861,-0.06322000175714493,-0.08990000188350677,-0.012760000303387642,1160,1160,1160,1160,0,0,0,0,0,0
4350,2.8049182891845703,11.94931411743164,312.7685546875,-0.7237160801887512,3.675423622131348,16.048913955688473,13.940349578857422,-22.41788673400879,-68.39565277099611,-0.06322000175714493,-0.08990000188350677,-0.012760000303387642,1160,1160,1160,1160,0,0,0,0,0,0
4352,2.8159966468811035,12.111334800720215,312.3592529296875,-0.7308751344680786,3.6758551597595215,16.052534103393555,13.897356986999512,-22.42119598388672,-68.41474151611328,-0.06322000175714493,-0.08990000188350677,-0.012760000303387642,1160,1160,1160,1160,0,0,0,0,0,0
4354,2.822798013687134,12.252979278564453,311.97125244140625,-0.7317691445350647,3.676923513412476,16.05816650390625,13.908371925354006,-22.38946533203125,-68.44374084472656,-0.06322000175714493,-0.08990000188350677,-0.012760000303387642,1160,1160,1160,1160,0,0,0,0,0,0
4356,2.823918581008911,12.377939224243164,311.6034240722656,-0.7270323634147644,3.6805052757263184,16.058629989624027,13.970784187316895,-22.351043701171875,-68.46033477783203,-0.06322000175714493,-0.08990000188350677,-0.012760000303387642,1160,1160,1160,1160,0,0,0,0,0,0
4358,2.8218555450439453,12.488025665283205,311.2546081542969,-0.7272409200668335,3.683141708374024,16.055452346801758,14.003850936889648,-22.33258628845215,-68.48246765136719,-0.06322000175714493,-0.08990000188350677,-0.012760000303387642,1160,1160,1160,1160,0,0,0,0,0,0
4360,2.819782257080078,12.582050323486328,310.9235534667969,-0.7356879115104675,3.6816713809967037,16.072084426879886,14.084903717041016,-22.264986038208008,-68.48052978515625,-0.06322000175714493,-0.08990000188350677,-0.012760000303387642,1160,1160,1160,1160,0,0,0,0,0,0
4362,2.7091152667999268,12.565689086914062,311.0118408203125,-0.7352621555328369,3.6808829307556152,16.077381134033207,14.158344268798828,-22.219057083129886,-68.47566986083984,-0.04755999892950058,-0.05277999863028526,-0.02116999961435795,1160,1160,1160,1160,0,0,0,0,0,0
4364,2.6097581386566158,12.553406715393065,311.0950622558594,-0.7314844131469727,3.6821079254150386,16.073028564453125,14.181559562683105,-22.189599990844727,-68.46649932861328,-0.04755999892950058,-0.05277999863028526,-0.02116999961435795,1160,1160,1160,1160,0,0,0,0,0,0
4366,2.521291255950928,12.543999671936035,311.1734924316406,-0.7301192283630371,3.681632280349731,16.068206787109375,14.142332077026367,-22.192018508911133,-68.46045684814453,-0.04755999892950058,-0.05277999863028526,-0.02116999961435795,1160,1160,1160,1160,0,0,0,0,0,0
4368,2.4421639442443848,12.536663055419922,311.2474670410156,-0.7280661463737488,3.6818687915802,16.071630477905273,14.099505424499512,-22.207666397094727,-68.46782684326172,-0.04755999892950058,-0.05277999863028526,-0.02116999961435795,1160,1160,1160,1160,0,0,0,0,0,0
4370,2.373282194137573,12.53219223022461,311.3173522949219,-0.7313460111618042,3.6840429306030273,16.070865631103516,14.121010780334473,-22.22666931152344,-68.46913909912111,-0.04755999892950058,-0.05277999863028526,-0.02116999961435795,1160,1160,1160,1160,0,0,0,0,0,0
4372,2.311439037322998,12.530430793762207,311.3834533691406,-0.7278741002082825,3.68487286567688,16.06174659729004,14.161237716674805,-22.183815002441406,-68.47780609130861,-0.04755999892950058,-0.05277999863028526,-0.02116999961435795,1160,1160,1160,1160,0,0,0,0,0,0
4374,2.2554080486297607,12.530412673950195,311.4460144042969,-0.7237063646316528,3.685144662857056,16.055978775024414,14.120962142944336,-22.22494125366211,-68.4759521484375,-0.04755999892950058,-0.05277999863028526,-0.02116999961435795,1160,1160,1160,1160,0,0,0,0,0,0
4376,2.2039594650268555,12.533230781555176,311.50531005859375,-0.7174770832061768,3.6861667633056636,16.036916732788086,14.10218334197998,-22.294313430786133,-68.45347595214844,-0.04755999892950058,-0.05277999863028526,-0.02116999961435795,1160,1160,1160,1160,0,0,0,0,0,0
4378,2.0799720287323002,12.406963348388672,312.1880798339844,-0.7192021012306213,3.6858162879943848,16.05228042602539,14.161985397338867,-22.282861709594727,-68.42999267578125,-0.07046999782323837,-0.038279999047517776,-0.01624000072479248,1160,1160,1160,1160,0,0,0,0,0,0
4380,1.9705162048339844,12.295042991638185,312.8495178222656,-0.7223304510116577,3.6884953975677486,16.061086654663086,14.16447639465332,-22.271610260009766,-68.41881561279297,-0.07046999782323837,-0.038279999047517776,-0.01624000072479248,1160,1160,1160,1160,0,0,0,0,0,0
4382,1.8732336759567259,12.196533203125,313.48956298828125,-0.7214155197143555,3.691653490066528,16.064638137817386,14.091680526733398,-22.34259033203125,-68.42855834960939,-0.07046999782323837,-0.038279999047517776,-0.01624000072479248,1160,1160,1160,1160,0,0,0,0,0,0
4384,1.7883810997009275,12.1099214553833,314.10870361328125,-0.7238234281539917,3.6909089088439937,16.061229705810547,14.097124099731445,-22.284467697143555,-68.46614074707031,-0.07046999782323837,-0.038279999047517776,-0.01624000072479248,1160,1160,1160,1160,0,0,0,0,0,0
4386,1.7153586149215698,12.034218788146973,314.7075500488281,-0.7273520827293396,3.688562393188477,16.051321029663086,14.095081329345705,-22.210453033447266,-68.50881958007811,-0.07046999782323837,-0.038279999047517776,-0.01624000072479248,1160,1160,1160,1160,0,0,0,0,0,0
4388,1.6525431871414185,11.967967987060547,315.28662109375,-0.7288049459457397,3.684217691421509,16.04188346862793,14.088652610778807,-22.167877197265625,-68.53436279296875,-0.07046999782323837,-0.038279999047517776,-0.01624000072479248,1160,1160,1160,1160,0,0,0,0,0,0
4390,1.6000396013259888,11.912031173706055,315.8464050292969,-0.7331857681274414,3.683048009872437,16.021955490112305,14.15611457824707,-22.099496841430664,-68.5697021484375,-0.07046999782323837,-0.038279999047517776,-0.01624000072479248,1160,1160,1160,1160,0,0,0,0,0,0
4392,1.5555362701416016,11.864778518676758,316.3875427246094,-0.7334225177764893,3.684979915618897,16.029024124145508,14.260510444641113,-21.998517990112305,-68.59248352050781,-0.07046999782323837,-0.038279999047517776,-0.01624000072479248,1160,1160,1160,1160,0,0,0,0,0,0
4394,1.6167439222335815,11.970947265625,316.3324890136719,-0.7293657660484314,3.6852490901947017,16.034643173217773,14.367127418518065,-21.923402786254886,-68.58378601074219,-0.05509999766945839,-0.0524899996817112,-0.008700000122189522,1160,1160,1160,1160,0,0,0,0,0,0
4396,1.6721251010894775,12.067800521850586,316.2806701660156,-0.7287845015525818,3.68659257888794,16.028104782104492,14.46412181854248,-21.867677688598636,-68.60036468505861,-0.05509999766945839,-0.0524899996817112,-0.008700000122189522,1160,1160,1160,1160,0,0,0,0,0,0
4398,1.723224401473999,12.155264854431152,316.23211669921875,-0.7313850522041321,3.68574595451355,16.027948379516598,14.601852416992188,-21.7646541595459,-68.59446716308594,-0.05509999766945839,-0.0524899996817112,-0.008700000122189522,1160,1160,1160,1160,0,0,0,0,0,0
4400,1.7700088024139404,12.233799934387207,316.1866455078125,-0.7329245209693909,3.684594869613648,16.02931022644043,14.618671417236328,-21.69959831237793,-68.57096099853516,-0.05509999766945839,-0.0524899996817112,-0.008700000122189522,1160,1160,1160,1160,0,0,0,0,0,0
4402,1.8119738101959229,12.304112434387207,316.14398193359375,-0.7316514849662781,3.6836316585540767,16.032812118530273,14.613009452819824,-21.638080596923828,-68.58042907714844,-0.05509999766945839,-0.0524899996817112,-0.008700000122189522,1160,1160,1160,1160,0,0,0,0,0,0
4404,1.851456999778748,12.366180419921875,316.10382080078125,-0.7374047636985779,3.6839852333068848,16.054157257080078,14.63254451751709,-21.6077823638916,-68.58380889892578,-0.05509999766945839,-0.0524899996817112,-0.008700000122189522,1160,1160,1160,1160,0,0,0,0,0,0
4406,1.8863708972930908,12.420858383178713,316.0660705566406,-0.7353488206863403,3.681902885437012,16.064098358154293,14.657567977905273,-21.598512649536133,-68.57973480224611,-0.05509999766945839,-0.0524899996817112,-0.008700000122189522,1160,1160,1160,1160,0,0,0,0,0,0
4408,1.9200748205184937,12.470209121704102,316.03045654296875,-0.7415938377380371,3.67911148071289,16.05265998840332,14.733692169189453,-21.5628604888916,-68.59197235107422,-0.05509999766945839,-0.0524899996817112,-0.008700000122189522,1160,1160,1160,1160,0,0,0,0,0,0
4410,2.1192212104797363,12.663801193237305,315.44976806640625,-0.7383670806884766,3.677732944488525,16.03718376159668,14.731507301330565,-21.554372787475586,-68.58328247070311,-0.044369999319314964,-0.06640999764204025,-0.020010000094771385,1160,1160,1160,1160,0,0,0,0,0,0
4412,2.2850377559661865,12.824383735656738,314.9026184082031,-0.7360866665840149,3.677626848220825,16.047063827514652,14.705765724182127,-21.564123153686523,-68.60284423828125,-0.044369999319314964,-0.06640999764204025,-0.020010000094771385,1160,1160,1160,1160,0,0,0,0,0,0
4414,2.422303915023804,12.955894470214846,314.386474609375,-0.7351881265640259,3.676766395568848,16.060630798339847,14.745474815368652,-21.572498321533203,-68.61902618408203,-0.044369999319314964,-0.06640999764204025,-0.020010000094771385,1160,1160,1160,1160,0,0,0,0,0,0
4416,2.536185503005981,13.063889503479006,313.8992614746094,-0.7373483180999756,3.676303386688232,16.056547164916992,14.698789596557615,-21.62415885925293,-68.62010192871094,-0.044369999319314964,-0.06640999764204025,-0.020010000094771385,1160,1160,1160,1160,0,0,0,0,0,0
4418,2.6289713382720947,13.150617599487305,313.4388427734375,-0.7372724413871765,3.6742331981658936,16.058902740478516,14.685539245605467,-21.63511848449707,-68.61524963378906,-0.044369999319314964,-0.06640999764204025,-0.020010000094771385,1160,1160,1160,1160,0,0,0,0,0,0
4420,2.7020206451416016,13.220306396484375,313.00347900390625,-0.7331095933914185,3.674636840820313,16.058555603027347,14.657816886901855,-21.63141632080078,-68.61197662353516,-0.044369999319314964,-0.06640999764204025,-0.020010000094771385,1160,1160,1160,1160,0,0,0,0,0,0
4422,2.7609565258026123,13.274114608764648,312.5913391113281,-0.7365801930427551,3.675032138824463,16.075695037841793,14.714760780334473,-21.53608703613281,-68.62648773193361,-0.044369999319314964,-0.06640999764204025,-0.020010000094771385,1160,1160,1160,1160,0,0,0,0,0,0
4424,2.8064818382263184,13.313788414001465,312.2008361816406,-0.7361297607421875,3.670885562896729,16.07950210571289,14.758705139160154,-21.46532249450684,-68.63774108886719,-0.044369999319314964,-0.06640999764204025,-0.020010000094771385,1160,1160,1160,1160,0,0,0,0,0,0
4426,2.767716884613037,13.283981323242188,312.0833435058594,-0.7374725341796875,3.665806293487549,16.089075088500973,14.723541259765625,-21.43196678161621,-68.63548278808594,-0.048719998449087136,-0.057420000433921814,-0.008990000002086163,1160,1160,1160,1160,0,0,0,0,0,0
4428,2.73257064819336,13.25676727294922,311.9707336425781,-0.7401633262634277,3.6685049533844,16.095151901245114,14.705348014831545,-21.41849136352539,-68.63178253173828,-0.048719998449087136,-0.057420000433921814,-0.008990000002086163,1160,1160,1160,1160,0,0,0,0,0,0
4430,2.699370145797729,13.233383178710938,311.8629455566406,-0.7380972504615784,3.672654390335083,16.091035842895508,14.804071426391602,-21.35457992553711,-68.61784362792969,-0.048719998449087136,-0.057420000433921814,-0.008990000002086163,1160,1160,1160,1160,0,0,0,0,0,0
4432,2.6681592464447017,13.211584091186525,311.75970458984375,-0.7364837527275085,3.6704490184783936,16.084531784057614,14.911039352416992,-21.291767120361328,-68.59975433349611,-0.048719998449087136,-0.057420000433921814,-0.008990000002086163,1160,1160,1160,1160,0,0,0,0,0,0
4434,2.6365952491760254,13.19267749786377,311.6608581542969,-0.7285832762718201,3.673583269119263,16.0828857421875,15.04377269744873,-21.22641944885254,-68.57466125488281,-0.048719998449087136,-0.057420000433921814,-0.008990000002086163,1160,1160,1160,1160,0,0,0,0,0,0
4435,2.6216418743133545,13.18427562713623,311.613525390625,-0.7279406785964966,3.6762208938598633,16.08933925628662,15.0718674659729,-21.208784103393555,-68.56977081298828,-0.048719998449087136,-0.057420000433921814,-0.008990000002086163,1160,1160,1160,1160,0,0,0,0,0,0
4436,2.606688499450684,13.175873756408693,311.5661926269531,-0.7272980809211731,3.678858518600464,16.095792770385742,15.09996223449707,-21.19114875793457,-68.56488037109375,-0.048719998449087136,-0.057420000433921814,-0.008990000002086163,1160,1160,1160,1160,0,0,0,0,0,0
4438,2.5766806602478027,13.161974906921387,311.4754943847656,-0.7205740213394165,3.68520188331604,16.098649978637695,15.10186004638672,-21.14080238342285,-68.57891845703125,-0.048719998449087136,-0.057420000433921814,-0.008990000002086163,1160,1160,1160,1160,0,0,0,0,0,0
4440,2.5478756427764893,13.15072536468506,311.38861083984375,-0.718124508857727,3.6929142475128174,16.108417510986328,15.14207363128662,-21.120285034179688,-68.58823394775389,-0.048719998449087136,-0.057420000433921814,-0.008990000002086163,1160,1160,1160,1160,0,0,0,0,0,0
4442,2.412749528884888,12.988916397094727,312.1249084472656,-0.7200954556465149,3.695216655731201,16.097801208496097,15.123908042907715,-21.12545394897461,-68.60028839111328,-0.06988999992609024,-0.03508999943733215,-0.013629999943077564,1160,1160,1160,1160,0,0,0,0,0,0
4444,2.291184902191162,12.843865394592285,312.83880615234375,-0.7185824513435364,3.6946072578430176,16.085174560546875,15.088424682617188,-21.169137954711914,-68.61653900146484,-0.06988999992609024,-0.03508999943733215,-0.013629999943077564,1160,1160,1160,1160,0,0,0,0,0,0
4446,2.1832749843597408,12.714457511901855,313.5302429199219,-0.7214643359184265,3.6957933902740483,16.0767822265625,15.0831937789917,-21.189149856567386,-68.61618804931639,-0.06988999992609024,-0.03508999943733215,-0.013629999943077564,1160,1160,1160,1160,0,0,0,0,0,0
4448,2.087606430053711,12.59988784790039,314.19964599609375,-0.7224858999252319,3.695927619934082,16.05576515197754,15.013165473937988,-21.21484375,-68.60256195068361,-0.06988999992609024,-0.03508999943733215,-0.013629999943077564,1160,1160,1160,1160,0,0,0,0,0,0
4450,2.0027837753295903,12.496978759765625,314.8475646972656,-0.7226877808570862,3.6922261714935294,16.051090240478516,14.907733917236328,-21.26060485839844,-68.59809112548828,-0.06988999992609024,-0.03508999943733215,-0.013629999943077564,1160,1160,1160,1160,0,0,0,0,0,0
4452,1.927846908569336,12.405803680419922,315.4745178222656,-0.7225542664527893,3.6922240257263184,16.047794342041016,14.842877388000488,-21.28868865966797,-68.57747650146484,-0.06988999992609024,-0.03508999943733215,-0.013629999943077564,1160,1160,1160,1160,0,0,0,0,0,0
4454,1.8638335466384888,12.325730323791506,316.08111572265625,-0.7297455668449402,3.6952438354492183,16.054943084716793,14.841341018676758,-21.31146240234375,-68.54106140136719,-0.06988999992609024,-0.03508999943733215,-0.013629999943077564,1160,1160,1160,1160,0,0,0,0,0,0
4456,1.8063280582427976,12.256097793579102,316.6678771972656,-0.7232839465141296,3.695281505584717,16.043624877929688,14.779362678527832,-21.365211486816406,-68.51132202148439,-0.06988999992609024,-0.03508999943733215,-0.013629999943077564,1160,1160,1160,1160,0,0,0,0,0,0
4458,2.3183071613311768,12.681415557861328,315.3084716796875,-0.7162749171257019,3.701470136642456,16.040735244750973,14.73786163330078,-21.416828155517575,-68.49253845214844,-0.022329999133944508,-0.05509999766945839,-0.014209999702870848,1160,1160,1160,1160,0,0,0,0,0,0
4460,2.742363452911377,13.031783103942873,314.0224304199219,-0.7165161371231079,3.706170320510864,16.042802810668945,14.745914459228516,-21.401201248168945,-68.49186706542969,-0.022329999133944508,-0.05509999766945839,-0.014209999702870848,1160,1160,1160,1160,0,0,0,0,0,0
4462,3.08519983291626,13.316452026367188,312.80914306640625,-0.7124637961387634,3.709415435791016,16.027399063110348,14.734621047973633,-21.399118423461914,-68.49266815185547,-0.022329999133944508,-0.05509999766945839,-0.014209999702870848,1160,1160,1160,1160,0,0,0,0,0,0
4464,3.35737943649292,13.543305397033693,311.6673278808594,-0.7109633684158325,3.712534189224243,16.019411087036133,14.714715003967285,-21.441707611083984,-68.50083923339844,-0.022329999133944508,-0.05509999766945839,-0.014209999702870848,1160,1160,1160,1160,0,0,0,0,0,0
4466,3.5690836906433105,13.72064971923828,310.59466552734375,-0.7110211849212646,3.7156891822814937,16.01375389099121,14.637702941894533,-21.500450134277344,-68.51178741455078,-0.022329999133944508,-0.05509999766945839,-0.014209999702870848,1160,1160,1160,1160,0,0,0,0,0,0
4468,3.729282855987549,13.855036735534668,309.5876770019531,-0.7104838490486145,3.71461820602417,16.005352020263672,14.640490531921387,-21.4604606628418,-68.54022216796875,-0.022329999133944508,-0.05509999766945839,-0.014209999702870848,1160,1160,1160,1160,0,0,0,0,0,0
4470,3.843981504440308,13.953020095825195,308.6424865722656,-0.7054764032363892,3.711845874786377,15.997641563415527,14.646170616149902,-21.442873001098636,-68.57248687744139,-0.022329999133944508,-0.05509999766945839,-0.014209999702870848,1160,1160,1160,1160,0,0,0,0,0,0
4472,3.922633171081543,14.020724296569824,307.75537109375,-0.7052237987518309,3.7108080387115483,16.000566482543945,14.606006622314453,-21.49555969238281,-68.59078216552734,-0.022329999133944508,-0.05509999766945839,-0.014209999702870848,1160,1160,1160,1160,0,0,0,0,0,0
4474,3.655265092849731,13.815491676330565,308.2361755371094,-0.7120351791381836,3.7127082347869873,15.99820041656494,14.54603672027588,-21.565439224243164,-68.61164093017578,-0.06496000289916992,-0.05423000082373619,-0.017980000004172325,1160,1160,1160,1160,0,0,0,0,0,0
4476,3.4126222133636475,13.631319046020508,308.6982421875,-0.7069849967956543,3.7114348411560063,16.000057220458984,14.53600788116455,-21.5472469329834,-68.62764739990234,-0.06496000289916992,-0.05423000082373619,-0.017980000004172325,1160,1160,1160,1160,0,0,0,0,0,0
4478,3.1941220760345463,13.466182708740234,309.1420593261719,-0.7074822187423706,3.712834119796753,16.01656723022461,14.54831314086914,-21.519723892211914,-68.63298034667969,-0.06496000289916992,-0.05423000082373619,-0.017980000004172325,1160,1160,1160,1160,0,0,0,0,0,0
4480,2.998302459716797,13.31860637664795,309.5682678222656,-0.7093507647514343,3.709939002990722,16.009273529052734,14.480705261230467,-21.57470703125,-68.61310577392578,-0.06496000289916992,-0.05423000082373619,-0.017980000004172325,1160,1160,1160,1160,0,0,0,0,0,0
4482,2.824700355529785,13.186327934265135,309.97747802734375,-0.7159165740013123,3.7052211761474614,16.005611419677734,14.466150283813475,-21.581695556640625,-68.62612915039061,-0.06496000289916992,-0.05423000082373619,-0.017980000004172325,1160,1160,1160,1160,0,0,0,0,0,0
4484,2.668909788131714,13.069225311279295,310.370361328125,-0.7141890525817871,3.7039554119110103,15.99987506866455,14.509434700012207,-21.605451583862305,-68.60049438476561,-0.06496000289916992,-0.05423000082373619,-0.017980000004172325,1160,1160,1160,1160,0,0,0,0,0,0
4486,2.5282232761383057,12.966045379638672,310.7475280761719,-0.7090795040130615,3.704768180847168,16.000301361083984,14.532626152038574,-21.64569091796875,-68.57540130615234,-0.06496000289916992,-0.05423000082373619,-0.017980000004172325,1160,1160,1160,1160,0,0,0,0,0,0
4488,2.403040647506714,12.875228881835938,311.10955810546875,-0.7094530463218689,3.704267263412476,15.998601913452148,14.547954559326172,-21.646629333496094,-68.57296752929689,-0.06496000289916992,-0.05423000082373619,-0.017980000004172325,1160,1160,1160,1160,0,0,0,0,0,0
4490,2.325390338897705,12.836949348449707,311.3339538574219,-0.7053315043449402,3.702158927917481,16.013507843017578,14.599836349487305,-21.634281158447266,-68.55288696289061,-0.05799999833106995,-0.05364999920129776,-0.012760000303387642,1160,1160,1160,1160,0,0,0,0,0,0
4492,2.256922483444214,12.80368423461914,311.5487976074219,-0.7083147168159485,3.706195831298828,16.032220840454098,14.541471481323242,-21.6800537109375,-68.52289581298828,-0.05799999833106995,-0.05364999920129776,-0.012760000303387642,1160,1160,1160,1160,0,0,0,0,0,0
4494,2.194743633270264,12.775605201721193,311.7546081542969,-0.7036309242248535,3.707821130752564,16.031225204467773,14.497612953186035,-21.708147048950195,-68.52452087402344,-0.05799999833106995,-0.05364999920129776,-0.012760000303387642,1160,1160,1160,1160,0,0,0,0,0,0
4496,2.1395630836486816,12.75179958343506,311.9518127441406,-0.7033632397651672,3.7089252471923833,16.036127090454098,14.54760456085205,-21.709211349487305,-68.51282501220703,-0.05799999833106995,-0.05364999920129776,-0.012760000303387642,1160,1160,1160,1160,0,0,0,0,0,0
4498,2.09122085571289,12.73224925994873,312.1407775878906,-0.7042902112007141,3.7091939449310303,16.030542373657227,14.571466445922852,-21.71267318725586,-68.51908874511719,-0.05799999833106995,-0.05364999920129776,-0.012760000303387642,1160,1160,1160,1160,0,0,0,0,0,0
4500,2.0495750904083248,12.714847564697266,312.32177734375,-0.7067085504531859,3.7040064334869385,16.024188995361328,14.56090259552002,-21.705217361450195,-68.55623626708984,-0.05799999833106995,-0.05364999920129776,-0.012760000303387642,1160,1160,1160,1160,0,0,0,0,0,0
4502,2.0136079788208012,12.69935131072998,312.4952392578125,-0.7082028388977051,3.7003934383392334,16.024730682373047,14.55793285369873,-21.69426727294922,-68.57636260986328,-0.05799999833106995,-0.05364999920129776,-0.012760000303387642,1160,1160,1160,1160,0,0,0,0,0,0
4504,1.982565999031067,12.687716484069824,312.66156005859375,-0.708270788192749,3.700153350830078,16.010948181152347,14.645008087158205,-21.64731788635254,-68.58129119873047,-0.05799999833106995,-0.05364999920129776,-0.012760000303387642,1160,1160,1160,1160,0,0,0,0,0,0
4506,2.3212623596191406,12.940470695495605,311.5504455566406,-0.7135472297668457,3.694737911224365,16.00394058227539,14.711074829101562,-21.63013458251953,-68.5787353515625,-0.027259999886155132,-0.06293000280857086,-0.011309999972581863,1160,1160,1160,1160,0,0,0,0,0,0
4508,2.5987801551818848,13.142985343933105,310.5071716308594,-0.7122147679328918,3.6885271072387695,16.00108528137207,14.678389549255373,-21.668739318847656,-68.57920074462889,-0.027259999886155132,-0.06293000280857086,-0.011309999972581863,1160,1160,1160,1160,0,0,0,0,0,0
4510,2.8220522403717037,13.302088737487793,309.5277404785156,-0.7092701196670532,3.684561967849731,16.007743835449222,14.596240043640135,-21.681344985961914,-68.60620880126953,-0.027259999886155132,-0.06293000280857086,-0.011309999972581863,1160,1160,1160,1160,0,0,0,0,0,0
4512,2.9997577667236333,13.42566204071045,308.6089782714844,-0.7091107964515686,3.68327522277832,16.013687133789062,14.563029289245605,-21.67563247680664,-68.59722137451172,-0.027259999886155132,-0.06293000280857086,-0.011309999972581863,1160,1160,1160,1160,0,0,0,0,0,0
4514,3.1378893852233887,13.520342826843262,307.74737548828125,-0.7077026963233948,3.684284210205078,16.020856857299805,14.567395210266113,-21.70741844177246,-68.58399200439453,-0.027259999886155132,-0.06293000280857086,-0.011309999972581863,1160,1160,1160,1160,0,0,0,0,0,0
4516,3.243788242340088,13.589791297912598,306.9391174316406,-0.7092355489730835,3.682519197463989,16.02855110168457,14.598215103149414,-21.7398681640625,-68.54595947265625,-0.027259999886155132,-0.06293000280857086,-0.011309999972581863,1160,1160,1160,1160,0,0,0,0,0,0
4518,3.322880983352661,13.639138221740724,306.1807556152344,-0.7105942368507385,3.678688287734986,16.020206451416016,14.685918807983398,-21.717470169067386,-68.52201843261719,-0.027259999886155132,-0.06293000280857086,-0.011309999972581863,1160,1160,1160,1160,0,0,0,0,0,0
4520,3.3799495697021484,13.67292022705078,305.468994140625,-0.7134981751441956,3.6802861690521236,16.025278091430664,14.74374771118164,-21.69907760620117,-68.50596618652344,-0.027259999886155132,-0.06293000280857086,-0.011309999972581863,1160,1160,1160,1160,0,0,0,0,0,0
4522,3.2443163394927983,13.588805198669435,305.6121520996094,-0.7195538282394409,3.6812548637390137,16.019662857055664,14.728078842163086,-21.70633316040039,-68.48728179931639,-0.08584000170230865,-0.1023700013756752,-0.008990000002086163,1160,1160,1160,1160,0,0,0,0,0,0
4524,3.1221637725830083,13.512484550476074,305.748046875,-0.7206280827522278,3.6790716648101807,16.021846771240234,14.641935348510742,-21.76534080505371,-68.47341918945311,-0.08584000170230865,-0.1023700013756752,-0.008990000002086163,1160,1160,1160,1160,0,0,0,0,0,0
4526,3.011905670166016,13.443735122680664,305.8772277832031,-0.721409022808075,3.6822798252105713,16.040395736694336,14.55760383605957,-21.835391998291016,-68.47315216064453,-0.08584000170230865,-0.1023700013756752,-0.008990000002086163,1160,1160,1160,1160,0,0,0,0,0,0
4528,2.9123363494873047,13.38164520263672,305.99993896484375,-0.7214428186416626,3.683527946472168,16.05177116394043,14.441122055053713,-21.890966415405273,-68.49059295654297,-0.08584000170230865,-0.1023700013756752,-0.008990000002086163,1160,1160,1160,1160,0,0,0,0,0,0
4530,2.8242619037628174,13.325979232788086,306.1166076660156,-0.7267520427703857,3.6852867603302,16.06217384338379,14.430347442626953,-21.88164520263672,-68.51062774658203,-0.08584000170230865,-0.1023700013756752,-0.008990000002086163,1160,1160,1160,1160,0,0,0,0,0,0
4532,2.746042251586914,13.277923583984375,306.2276306152344,-0.7294744849205017,3.6873295307159424,16.049737930297848,14.474382400512695,-21.90023231506348,-68.50808715820311,-0.08584000170230865,-0.1023700013756752,-0.008990000002086163,1160,1160,1160,1160,0,0,0,0,0,0
4534,2.6763806343078613,13.235020637512207,306.33319091796875,-0.7302752733230591,3.682742595672608,16.032890319824222,14.549941062927244,-21.83526039123535,-68.53364562988281,-0.08584000170230865,-0.1023700013756752,-0.008990000002086163,1160,1160,1160,1160,0,0,0,0,0,0
4536,2.615365743637085,13.19371223449707,306.4336242675781,-0.7352749705314636,3.6749675273895264,16.044872283935547,14.63275909423828,-21.78587913513184,-68.53358459472656,-0.08584000170230865,-0.1023700013756752,-0.008990000002086163,1160,1160,1160,1160,0,0,0,0,0,0
4538,2.501873731613159,13.099005699157715,306.7452087402344,-0.7383561730384827,3.671685218811035,16.04913330078125,14.588448524475098,-21.792848587036133,-68.53055572509766,-0.07337000221014023,-0.07423999905586243,-0.017109999433159828,1160,1160,1160,1160,0,0,0,0,0,0
4540,2.402045488357544,13.01401424407959,307.0438537597656,-0.7416161298751831,3.670527219772339,16.061393737792972,14.530323028564453,-21.825027465820312,-68.52169036865234,-0.07337000221014023,-0.07423999905586243,-0.017109999433159828,1160,1160,1160,1160,0,0,0,0,0,0
4542,2.311795949935913,12.939295768737793,307.3299560546875,-0.7350251078605652,3.6696114540100098,16.05240249633789,14.47342014312744,-21.883195877075195,-68.50119781494139,-0.07337000221014023,-0.07423999905586243,-0.017109999433159828,1160,1160,1160,1160,0,0,0,0,0,0
4544,2.231776714324951,12.87302017211914,307.60400390625,-0.7340240478515625,3.6689863204956055,16.05665397644043,14.42361545562744,-21.918642044067386,-68.51509094238281,-0.07337000221014023,-0.07423999905586243,-0.017109999433159828,1160,1160,1160,1160,0,0,0,0,0,0
4546,2.1625320911407466,12.815146446228027,307.8665771484375,-0.7381289601325989,3.671829462051392,16.063690185546875,14.34683322906494,-21.94744682312012,-68.52278900146484,-0.07337000221014023,-0.07423999905586243,-0.017109999433159828,1160,1160,1160,1160,0,0,0,0,0,0
4548,2.1012580394744877,12.76593780517578,308.11822509765625,-0.7356574535369873,3.673313617706299,16.049694061279293,14.298224449157715,-21.9805850982666,-68.51113128662111,-0.07337000221014023,-0.07423999905586243,-0.017109999433159828,1160,1160,1160,1160,0,0,0,0,0,0
4550,2.0480811595916752,12.724812507629395,308.3594055175781,-0.7365515828132629,3.6794586181640634,16.054811477661133,14.35684871673584,-21.931110382080078,-68.50857543945311,-0.07337000221014023,-0.07423999905586243,-0.017109999433159828,1160,1160,1160,1160,0,0,0,0,0,0
4552,1.9995237588882449,12.689775466918945,308.59063720703125,-0.7286491394042969,3.679906129837036,16.052268981933597,14.421609878540039,-21.91144371032715,-68.51052093505861,-0.07337000221014023,-0.07423999905586243,-0.017109999433159828,1160,1160,1160,1160,0,0,0,0,0,0
4554,1.9064488410949707,12.607508659362793,308.7801818847656,-0.7295385599136353,3.6812613010406494,16.060880661010742,14.459932327270508,-21.889707565307614,-68.52716827392578,-0.039730001240968704,-0.045239999890327454,-0.02522999979555607,1160,1160,1160,1160,0,0,0,0,0,0
4556,1.8263673782348635,12.537904739379885,308.9599304199219,-0.7255228757858276,3.6807515621185294,16.064437866210938,14.531373977661133,-21.81767463684082,-68.52722930908203,-0.039730001240968704,-0.045239999890327454,-0.02522999979555607,1160,1160,1160,1160,0,0,0,0,0,0
4558,1.759599685668945,12.479662895202635,309.1305847167969,-0.7272899150848389,3.681440830230713,16.069147109985348,14.624908447265625,-21.81203269958496,-68.50368499755861,-0.039730001240968704,-0.045239999890327454,-0.02522999979555607,1160,1160,1160,1160,0,0,0,0,0,0
4560,1.7041430473327637,12.430825233459473,309.29278564453125,-0.728216826915741,3.6797399520874015,16.067922592163086,14.698770523071287,-21.839054107666016,-68.47177886962889,-0.039730001240968704,-0.045239999890327454,-0.02522999979555607,1160,1160,1160,1160,0,0,0,0,0,0
4562,1.6581803560256958,12.391200065612793,309.4471740722656,-0.7276012897491455,3.679101943969727,16.057960510253903,14.750428199768065,-21.81614875793457,-68.46710205078125,-0.039730001240968704,-0.045239999890327454,-0.02522999979555607,1160,1160,1160,1160,0,0,0,0,0,0
4564,1.6200551986694336,12.357133865356445,309.5942077636719,-0.7262111902236938,3.673891305923462,16.055791854858402,14.777395248413086,-21.7888126373291,-68.48320770263672,-0.039730001240968704,-0.045239999890327454,-0.02522999979555607,1160,1160,1160,1160,0,0,0,0,0,0
4566,1.5886515378952026,12.328811645507812,309.734375,-0.7244637012481691,3.6703639030456543,16.048538208007812,14.76986026763916,-21.76557159423828,-68.50043487548828,-0.039730001240968704,-0.045239999890327454,-0.02522999979555607,1160,1160,1160,1160,0,0,0,0,0,0
4568,1.5639494657516482,12.305142402648926,309.8680725097656,-0.7256004214286804,3.668859481811523,16.054021835327152,14.7919921875,-21.733078002929688,-68.53353881835939,-0.039730001240968704,-0.045239999890327454,-0.02522999979555607,1160,1160,1160,1160,0,0,0,0,0,0
4570,1.831171631813049,12.514599800109865,309.4188232421875,-0.7295418381690979,3.66884446144104,16.05684471130371,14.854957580566404,-21.660125732421875,-68.56151580810547,-0.024070000275969502,-0.0432099997997284,-0.02058999985456467,1160,1160,1160,1160,0,0,0,0,0,0
4572,2.0510587692260738,12.682055473327635,309.0002746582031,-0.7340340614318848,3.663596153259277,16.060247421264652,14.953474044799805,-21.571542739868164,-68.56970977783203,-0.024070000275969502,-0.0432099997997284,-0.02058999985456467,1160,1160,1160,1160,0,0,0,0,0,0
4574,2.2313826084136963,12.817130088806152,308.60943603515625,-0.7393918037414551,3.663862705230713,16.05775260925293,15.067611694335938,-21.47121238708496,-68.59989166259766,-0.024070000275969502,-0.0432099997997284,-0.02058999985456467,1160,1160,1160,1160,0,0,0,0,0,0
4576,2.3755946159362797,12.925387382507324,308.2435607910156,-0.7380724549293518,3.662558317184448,16.045764923095707,15.158696174621582,-21.393123626708984,-68.61318206787111,-0.024070000275969502,-0.0432099997997284,-0.02058999985456467,1160,1160,1160,1160,0,0,0,0,0,0
4577,2.4338728189468384,12.967315196990967,308.07183837890625,-0.740860641002655,3.6624066829681396,16.051345825195312,15.153862476348877,-21.380084991455078,-68.60862350463867,-0.024070000275969502,-0.0432099997997284,-0.02058999985456467,1160,1160,1160,1160,0,0,0,0,0,0
4578,2.492151021957397,13.00924301147461,307.9001159667969,-0.7436488270759583,3.662255048751831,16.056926727294922,15.149028778076172,-21.36704635620117,-68.60406494140625,-0.024070000275969502,-0.0432099997997284,-0.02058999985456467,1160,1160,1160,1160,0,0,0,0,0,0
4580,2.5832014083862305,13.072726249694824,307.5770568847656,-0.743597149848938,3.661095142364502,16.065670013427734,15.160221099853516,-21.317291259765625,-68.59070587158203,-0.024070000275969502,-0.0432099997997284,-0.02058999985456467,1160,1160,1160,1160,0,0,0,0,0,0
4582,2.6542935371398926,13.120476722717285,307.27252197265625,-0.7463830709457397,3.662118673324585,16.072919845581055,15.184453964233398,-21.280458450317386,-68.58942413330078,-0.024070000275969502,-0.0432099997997284,-0.02058999985456467,1160,1160,1160,1160,0,0,0,0,0,0
4584,2.709756851196289,13.156133651733398,306.98504638671875,-0.7510707974433899,3.66463041305542,16.078584671020508,15.2288236618042,-21.23098564147949,-68.59112548828125,-0.024070000275969502,-0.0432099997997284,-0.02058999985456467,1160,1160,1160,1160,0,0,0,0,0,0
4586,2.3744022846221924,12.780976295471193,307.69683837890625,-0.7477808594703674,3.6699466705322266,16.072357177734375,15.260462760925293,-21.17633819580078,-68.57360076904297,-0.051909998059272766,-0.036249998956918716,-0.02928999997675419,1160,1160,1160,1160,0,0,0,0,0,0
4588,2.081164121627808,12.453883171081545,308.38470458984375,-0.7490662336349487,3.673091173171997,16.065767288208008,15.331258773803713,-21.174509048461914,-68.54611206054689,-0.051909998059272766,-0.036249998956918716,-0.02928999997675419,1160,1160,1160,1160,0,0,0,0,0,0
4590,1.8235443830490112,12.169312477111815,309.0478210449219,-0.7424677610397339,3.674114227294922,16.058639526367188,15.276653289794922,-21.25836181640625,-68.53545379638672,-0.051909998059272766,-0.036249998956918716,-0.02928999997675419,1160,1160,1160,1160,0,0,0,0,0,0
4592,1.5979353189468384,11.921416282653807,309.6865234375,-0.7355895638465881,3.673926830291748,16.069648742675778,15.215826988220215,-21.287691116333008,-68.56192779541016,-0.051909998059272766,-0.036249998956918716,-0.02928999997675419,1160,1160,1160,1160,0,0,0,0,0,0
4594,1.4045310020446775,11.706878662109375,310.3016052246094,-0.7382662296295166,3.672178745269776,16.069208145141598,15.17103099822998,-21.300827026367188,-68.58489227294922,-0.051909998059272766,-0.036249998956918716,-0.02928999997675419,1160,1160,1160,1160,0,0,0,0,0,0
4596,1.240138053894043,11.5223388671875,310.8937072753906,-0.7408691644668579,3.670146226882935,16.06765365600586,15.167010307312012,-21.29323387145996,-68.61622619628906,-0.051909998059272766,-0.036249998956918716,-0.02928999997675419,1160,1160,1160,1160,0,0,0,0,0,0
4598,1.1003817319869995,11.363757133483887,311.4637756347656,-0.7395092248916626,3.666000843048096,16.066997528076172,15.098166465759276,-21.308692932128906,-68.63803863525389,-0.051909998059272766,-0.036249998956918716,-0.02928999997675419,1160,1160,1160,1160,0,0,0,0,0,0
4600,0.9846697449684144,11.22849178314209,312.0125732421875,-0.744782030582428,3.663838386535645,16.071769714355472,14.99537467956543,-21.366107940673828,-68.65495300292969,-0.051909998059272766,-0.036249998956918716,-0.02928999997675419,1160,1160,1160,1160,0,0,0,0,0,0
4602,1.0499601364135742,11.331988334655762,312.1506652832031,-0.7456883788108826,3.658756256103516,16.077272415161133,14.900644302368164,-21.418914794921875,-68.65233612060547,-0.04205000028014183,-0.0405999980866909,-0.013050000183284284,1160,1160,1160,1160,0,0,0,0,0,0
4604,1.1123076677322388,11.426928520202635,312.28485107421875,-0.7511866688728333,3.659724712371826,16.076879501342773,14.841841697692873,-21.455127716064453,-68.64680480957031,-0.04205000028014183,-0.0405999980866909,-0.013050000183284284,1160,1160,1160,1160,0,0,0,0,0,0
4606,1.17163348197937,11.513328552246096,312.4154968261719,-0.7556101679801941,3.6580810546875,16.07992935180664,14.89343547821045,-21.45452308654785,-68.60892486572266,-0.04205000028014183,-0.0405999980866909,-0.013050000183284284,1160,1160,1160,1160,0,0,0,0,0,0
4608,1.2248175144195557,11.592476844787598,312.5426025390625,-0.7493590116500854,3.657661676406861,16.079530715942386,14.89526081085205,-21.4587516784668,-68.5806884765625,-0.04205000028014183,-0.0405999980866909,-0.013050000183284284,1160,1160,1160,1160,0,0,0,0,0,0
4610,1.2714426517486572,11.665324211120605,312.6661071777344,-0.7391250133514404,3.654338836669922,16.060016632080078,14.808539390563965,-21.437576293945312,-68.58552551269531,-0.04205000028014183,-0.0405999980866909,-0.013050000183284284,1160,1160,1160,1160,0,0,0,0,0,0
4612,1.315671443939209,11.732382774353027,312.7859191894531,-0.7411766648292542,3.6547052860260014,16.059574127197266,14.801831245422365,-21.432449340820312,-68.59025573730469,-0.04205000028014183,-0.0405999980866909,-0.013050000183284284,1160,1160,1160,1160,0,0,0,0,0,0
4614,1.358180284500122,11.795282363891602,312.9021911621094,-0.7450186610221863,3.65954327583313,16.063955307006836,14.82918643951416,-21.41775894165039,-68.57717895507811,-0.04205000028014183,-0.0405999980866909,-0.013050000183284284,1160,1160,1160,1160,0,0,0,0,0,0
4616,1.396681547164917,11.85379695892334,313.01495361328125,-0.7416316270828247,3.663731575012207,16.073362350463867,14.836792945861815,-21.420211791992188,-68.56734466552734,-0.04205000028014183,-0.0405999980866909,-0.013050000183284284,1160,1160,1160,1160,0,0,0,0,0,0
4618,1.6758499145507812,12.112312316894533,312.4156188964844,-0.7438781261444092,3.666908264160156,16.10354995727539,14.82948398590088,-21.44192695617676,-68.58722686767578,-0.04495000094175339,-0.07510999590158463,-0.022619999945163727,1160,1160,1160,1160,0,0,0,0,0,0
4620,1.9109251499176023,12.328975677490234,311.8536071777344,-0.7436882257461548,3.668070554733277,16.121231079101562,14.786931037902832,-21.46688461303711,-68.6229248046875,-0.04495000094175339,-0.07510999590158463,-0.022619999945163727,1160,1160,1160,1160,0,0,0,0,0,0
4622,2.1095311641693115,12.508896827697756,311.3258972167969,-0.7484501004219055,3.667479991912842,16.136119842529293,14.79837417602539,-21.490205764770508,-68.62983703613281,-0.04495000094175339,-0.07510999590158463,-0.022619999945163727,1160,1160,1160,1160,0,0,0,0,0,0
4624,2.274401903152466,12.660261154174805,310.8300476074219,-0.7470131516456604,3.669224500656128,16.126323699951172,14.846454620361328,-21.49020004272461,-68.62330627441406,-0.04495000094175339,-0.07510999590158463,-0.022619999945163727,1160,1160,1160,1160,0,0,0,0,0,0
4626,2.4082062244415283,12.786447525024414,310.3634948730469,-0.7406033277511597,3.6695263385772714,16.117788314819336,14.87582015991211,-21.444355010986328,-68.62724304199219,-0.04495000094175339,-0.07510999590158463,-0.022619999945163727,1160,1160,1160,1160,0,0,0,0,0,0
4628,2.516829013824463,12.887110710144045,309.9237365722656,-0.7386569976806641,3.6631288528442383,16.12544822692871,14.947344779968262,-21.38120460510254,-68.62814331054689,-0.04495000094175339,-0.07510999590158463,-0.022619999945163727,1160,1160,1160,1160,0,0,0,0,0,0
4630,2.6049182415008545,12.96743869781494,309.5088806152344,-0.7394684553146362,3.6585483551025386,16.12293815612793,14.992290496826172,-21.38911247253418,-68.61575317382811,-0.04495000094175339,-0.07510999590158463,-0.022619999945163727,1160,1160,1160,1160,0,0,0,0,0,0
4632,2.676716089248657,13.030631065368652,309.1170959472656,-0.7439509630203247,3.657039165496826,16.129531860351562,14.946307182312012,-21.404125213623047,-68.60803985595703,-0.04495000094175339,-0.07510999590158463,-0.022619999945163727,1160,1160,1160,1160,0,0,0,0,0,0
4634,2.46992301940918,12.820648193359375,309.61944580078125,-0.746067464351654,3.654970407485962,16.134952545166016,15.025197982788086,-21.353731155395508,-68.61082458496094,-0.056839998811483376,-0.045239999890327454,-0.02377999946475029,1160,1160,1160,1160,0,0,0,0,0,0
4636,2.285387754440308,12.635964393615724,310.10235595703125,-0.7379028201103209,3.654728889465332,16.139963150024414,15.162904739379885,-21.26681137084961,-68.62242126464844,-0.056839998811483376,-0.045239999890327454,-0.02377999946475029,1160,1160,1160,1160,0,0,0,0,0,0
4638,2.1234469413757324,12.4740571975708,310.5661315917969,-0.7378777265548706,3.6546549797058105,16.14259147644043,15.213628768920898,-21.219989776611328,-68.63080596923828,-0.056839998811483376,-0.045239999890327454,-0.02377999946475029,1160,1160,1160,1160,0,0,0,0,0,0
4640,1.9811042547225952,12.333033561706545,311.0115661621094,-0.7356767654418945,3.655715942382813,16.142511367797848,15.1688814163208,-21.26325035095215,-68.62129974365234,-0.056839998811483376,-0.045239999890327454,-0.02377999946475029,1160,1160,1160,1160,0,0,0,0,0,0
4642,1.856828093528748,12.212408065795898,311.43927001953125,-0.7350534200668335,3.6634984016418457,16.149295806884766,15.133923530578613,-21.30094146728516,-68.63709259033203,-0.056839998811483376,-0.045239999890327454,-0.02377999946475029,1160,1160,1160,1160,0,0,0,0,0,0
4644,1.7481160163879397,12.110384941101074,311.85003662109375,-0.7311496734619141,3.6664104461669917,16.129175186157227,15.046598434448242,-21.351253509521484,-68.64075469970703,-0.056839998811483376,-0.045239999890327454,-0.02377999946475029,1160,1160,1160,1160,0,0,0,0,0,0
4646,1.6551178693771362,12.022421836853027,312.2445983886719,-0.7328935265541077,3.6623494625091553,16.118581771850586,15.059946060180664,-21.35123443603516,-68.64729309082031,-0.056839998811483376,-0.045239999890327454,-0.02377999946475029,1160,1160,1160,1160,0,0,0,0,0,0
4648,1.576039433479309,11.947784423828125,312.62371826171875,-0.7346552014350891,3.662482500076294,16.114545822143555,15.025813102722168,-21.399471282958984,-68.63301086425781,-0.056839998811483376,-0.045239999890327454,-0.02377999946475029,1160,1160,1160,1160,0,0,0,0,0,0
4650,1.5096086263656616,11.850156784057615,313.39459228515625,-0.7380831241607666,3.665795564651489,16.107124328613278,14.94814395904541,-21.457735061645508,-68.6337890625,-0.07046999782323837,-0.0313199982047081,-0.014789999462664127,1160,1160,1160,1160,0,0,0,0,0,0
4652,1.45341956615448,11.763448715209961,314.1427917480469,-0.7421421408653259,3.667253017425537,16.129783630371097,14.917837142944336,-21.494489669799805,-68.63455200195311,-0.07046999782323837,-0.0313199982047081,-0.014789999462664127,1160,1160,1160,1160,0,0,0,0,0,0
4654,1.4063905477523804,11.687983512878418,314.868408203125,-0.7447043061256409,3.6707818508148193,16.143243789672848,14.973721504211426,-21.4871768951416,-68.61612701416016,-0.07046999782323837,-0.0313199982047081,-0.014789999462664127,1160,1160,1160,1160,0,0,0,0,0,0
4656,1.3671181201934814,11.621238708496096,315.5718688964844,-0.7448216080665588,3.6678097248077393,16.153570175170902,14.948776245117188,-21.496877670288086,-68.61137390136719,-0.07046999782323837,-0.0313199982047081,-0.014789999462664127,1160,1160,1160,1160,0,0,0,0,0,0
4658,1.3343011140823364,11.56458568572998,316.2536315917969,-0.7417699098587036,3.667009115219116,16.137752532958984,14.89633083343506,-21.543811798095703,-68.61705017089844,-0.07046999782323837,-0.0313199982047081,-0.014789999462664127,1160,1160,1160,1160,0,0,0,0,0,0
4660,1.3066654205322266,11.517332077026367,316.9141540527344,-0.7363618612289429,3.6680073738098153,16.129627227783207,14.901044845581055,-21.556156158447266,-68.60784912109375,-0.07046999782323837,-0.0313199982047081,-0.014789999462664127,1160,1160,1160,1160,0,0,0,0,0,0
4662,1.2862519025802612,11.478193283081055,317.55401611328125,-0.7406661510467529,3.668443441390991,16.126211166381836,14.85698413848877,-21.552602767944336,-68.58112335205078,-0.07046999782323837,-0.0313199982047081,-0.014789999462664127,1160,1160,1160,1160,0,0,0,0,0,0
4664,1.2694257497787476,11.445795059204102,318.1737365722656,-0.7340353727340698,3.666172504425049,16.122228622436527,14.803522109985352,-21.58530616760254,-68.56528472900389,-0.07046999782323837,-0.0313199982047081,-0.014789999462664127,1160,1160,1160,1160,0,0,0,0,0,0
4666,2.066569328308105,12.074085235595705,316.51446533203125,-0.7320722341537476,3.667082071304321,16.122840881347653,14.80134391784668,-21.590900421142575,-68.57634735107422,-0.020879998803138733,-0.06728000193834305,-0.020879998803138733,1160,1160,1160,1160,0,0,0,0,0,0
4668,2.7449779510498047,12.60362148284912,314.9099426269531,-0.7286463975906372,3.666460275650024,16.118362426757812,14.744633674621582,-21.636211395263672,-68.56946563720703,-0.020879998803138733,-0.06728000193834305,-0.020879998803138733,1160,1160,1160,1160,0,0,0,0,0,0
4670,3.305187702178955,13.035330772399902,313.3692932128906,-0.7259743809700012,3.6632614135742183,16.110176086425778,14.674363136291506,-21.6879825592041,-68.56124877929689,-0.020879998803138733,-0.06728000193834305,-0.020879998803138733,1160,1160,1160,1160,0,0,0,0,0,0
4672,3.751705884933472,13.37876033782959,311.9017028808594,-0.7203420996665955,3.664722681045532,16.100704193115234,14.607051849365234,-21.71834754943848,-68.56651306152344,-0.020879998803138733,-0.06728000193834305,-0.020879998803138733,1160,1160,1160,1160,0,0,0,0,0,0
4674,4.097962379455566,13.641681671142578,310.5117492675781,-0.7204712629318237,3.6668527126312256,16.11311912536621,14.594259262084961,-21.70717430114746,-68.58052062988281,-0.020879998803138733,-0.06728000193834305,-0.020879998803138733,1160,1160,1160,1160,0,0,0,0,0,0
4676,4.357794761657715,13.834268569946287,309.201416015625,-0.7232349514961243,3.668503046035767,16.13449478149414,14.62598991394043,-21.643112182617188,-68.59127807617189,-0.020879998803138733,-0.06728000193834305,-0.020879998803138733,1160,1160,1160,1160,0,0,0,0,0,0
4678,4.544968605041504,13.972003936767578,307.9710693359375,-0.7266479134559631,3.672057628631592,16.131471633911133,14.595093727111815,-21.62237930297852,-68.57671356201172,-0.020879998803138733,-0.06728000193834305,-0.020879998803138733,1160,1160,1160,1160,0,0,0,0,0,0
4680,4.671282768249512,14.065390586853027,306.81817626953125,-0.72831791639328,3.673698902130127,16.119295120239258,14.53387451171875,-21.627338409423828,-68.56834411621094,-0.020879998803138733,-0.06728000193834305,-0.020879998803138733,1160,1160,1160,1160,0,0,0,0,0,0
4682,4.655627727508545,14.088493347167967,306.0279846191406,-0.7330418229103088,3.678756237030029,16.11009407043457,14.597854614257812,-21.569477081298828,-68.58821868896484,-0.020010000094771385,-0.05423000082373619,-0.02116999961435795,1160,1160,1160,1160,0,0,0,0,0,0
4684,4.620258331298828,14.094819068908693,305.2838439941406,-0.7299188375473022,3.6804606914520255,16.099958419799805,14.577880859375,-21.56448745727539,-68.609130859375,-0.020010000094771385,-0.05423000082373619,-0.02116999961435795,1160,1160,1160,1160,0,0,0,0,0,0
4686,4.5714454650878915,14.08764934539795,304.5827331542969,-0.7301796674728394,3.6811017990112314,16.09379768371582,14.609959602355955,-21.565616607666016,-68.60452270507811,-0.020010000094771385,-0.05423000082373619,-0.02116999961435795,1160,1160,1160,1160,0,0,0,0,0,0
4688,4.511829376220703,14.067063331604006,303.921142578125,-0.7290484309196472,3.676223754882813,16.091497421264652,14.63103199005127,-21.54983901977539,-68.59853363037111,-0.020010000094771385,-0.05423000082373619,-0.02116999961435795,1160,1160,1160,1160,0,0,0,0,0,0
4690,4.446794509887695,14.03895664215088,303.296630859375,-0.7332245707511902,3.6792805194854736,16.101001739501953,14.663461685180664,-21.49090003967285,-68.60300445556639,-0.020010000094771385,-0.05423000082373619,-0.02116999961435795,1160,1160,1160,1160,0,0,0,0,0,0
4692,4.374587535858153,14.007089614868164,302.706787109375,-0.7298328280448914,3.6814587116241455,16.091644287109375,14.630304336547852,-21.511398315429688,-68.61622619628906,-0.020010000094771385,-0.05423000082373619,-0.02116999961435795,1160,1160,1160,1160,0,0,0,0,0,0
4694,4.300112247467041,13.970155715942385,302.1488342285156,-0.7325363755226135,3.680673837661743,16.09323501586914,14.611124992370605,-21.55446434020996,-68.61442565917969,-0.020010000094771385,-0.05423000082373619,-0.02116999961435795,1160,1160,1160,1160,0,0,0,0,0,0
4696,4.224395751953125,13.931170463562012,301.6209411621094,-0.7339783906936646,3.678989171981812,16.079740524291992,14.69560432434082,-21.501480102539066,-68.58164215087889,-0.020010000094771385,-0.05423000082373619,-0.02116999961435795,1160,1160,1160,1160,0,0,0,0,0,0
4698,3.936295747756958,13.76319980621338,301.8360595703125,-0.7388101816177368,3.6822545528411865,16.077632904052734,14.672099113464355,-21.539888381958008,-68.54955291748047,-0.053360000252723694,-0.07395000010728836,-0.02116999961435795,1160,1160,1160,1160,0,0,0,0,0,0
4700,3.6800637245178223,13.615428924560547,302.0386657714844,-0.737770676612854,3.6847438812255864,16.090816497802734,14.666787147521973,-21.51007461547852,-68.54325103759766,-0.053360000252723694,-0.07395000010728836,-0.02116999961435795,1160,1160,1160,1160,0,0,0,0,0,0
4702,3.4524271488189697,13.485018730163574,302.22943115234375,-0.736100435256958,3.6815106868743896,16.086225509643555,14.666014671325685,-21.498872756958008,-68.54593658447266,-0.053360000252723694,-0.07395000010728836,-0.02116999961435795,1160,1160,1160,1160,0,0,0,0,0,0
4704,3.2497925758361816,13.369851112365724,302.4089660644531,-0.7330251336097717,3.678566455841065,16.086246490478516,14.719839096069336,-21.508371353149414,-68.54412078857422,-0.053360000252723694,-0.07395000010728836,-0.02116999961435795,1160,1160,1160,1160,0,0,0,0,0,0
4706,3.0699052810668945,13.270169258117676,302.5780944824219,-0.7299685478210449,3.6764981746673584,16.06338119506836,14.714999198913574,-21.50322914123535,-68.54824829101561,-0.053360000252723694,-0.07395000010728836,-0.02116999961435795,1160,1160,1160,1160,0,0,0,0,0,0
4708,2.912808656692505,13.182716369628904,302.7374572753906,-0.7358341217041016,3.679063320159912,16.07966423034668,14.707308769226074,-21.495759963989254,-68.54344940185547,-0.053360000252723694,-0.07395000010728836,-0.02116999961435795,1160,1160,1160,1160,0,0,0,0,0,0
4710,2.774008512496948,13.108060836791992,302.8877868652344,-0.7352724075317383,3.685887575149536,16.09061622619629,14.760258674621582,-21.435340881347656,-68.56235504150389,-0.053360000252723694,-0.07395000010728836,-0.02116999961435795,1160,1160,1160,1160,0,0,0,0,0,0
4712,2.649630308151245,13.043529510498047,303.02960205078125,-0.7288562655448914,3.686189889907837,16.08642578125,14.729486465454102,-21.418190002441406,-68.5897216796875,-0.053360000252723694,-0.07395000010728836,-0.02116999961435795,1160,1160,1160,1160,0,0,0,0,0,0
4714,3.4278714656829834,13.366676330566404,301.60723876953125,-0.7348184585571289,3.6881043910980233,16.085456848144528,14.64478874206543,-21.474924087524414,-68.60471343994139,-0.006959999911487103,-0.04552999883890152,-0.01971999928355217,1160,1160,1160,1160,0,0,0,0,0,0
4716,4.016261577606201,13.605892181396484,300.2623291015625,-0.7381759881973267,3.689815044403076,16.068092346191403,14.619403839111328,-21.488460540771484,-68.63265991210939,-0.006959999911487103,-0.04552999883890152,-0.01971999928355217,1160,1160,1160,1160,0,0,0,0,0,0
4718,4.436886787414551,13.770033836364744,299.00079345703125,-0.7390666604042053,3.6898131370544434,16.062549591064453,14.641753196716307,-21.513824462890625,-68.62017822265625,-0.006959999911487103,-0.04552999883890152,-0.01971999928355217,1160,1160,1160,1160,0,0,0,0,0,0
4720,4.717360496520996,13.863531112670898,297.8224792480469,-0.7354480624198914,3.672976016998291,16.053131103515625,14.666586875915527,-21.560466766357425,-68.60500335693361,-0.006959999911487103,-0.04552999883890152,-0.01971999928355217,1160,1160,1160,1160,0,0,0,0,0,0
4722,4.887457847595215,13.90827465057373,296.7264099121094,-0.7325226664543152,3.6684975624084473,16.058284759521484,14.64074420928955,-21.644908905029297,-68.57832336425781,-0.006959999911487103,-0.04552999883890152,-0.01971999928355217,1160,1160,1160,1160,0,0,0,0,0,0
4724,4.975951671600342,13.91938018798828,295.7080078125,-0.7328436970710754,3.6680600643157963,16.06679344177246,14.712796211242676,-21.638622283935547,-68.54927062988281,-0.006959999911487103,-0.04552999883890152,-0.01971999928355217,1160,1160,1160,1160,0,0,0,0,0,0
4726,5.0046210289001465,13.910140991210938,294.76171875,-0.733947217464447,3.672381401062012,16.071769714355472,14.724326133728027,-21.62882232666016,-68.52229309082031,-0.006959999911487103,-0.04552999883890152,-0.01971999928355217,1160,1160,1160,1160,0,0,0,0,0,0
4728,4.987834930419922,13.884891510009766,293.8807067871094,-0.7319205999374391,3.6725029945373535,16.073381423950195,14.667760848999025,-21.678306579589844,-68.51656341552734,-0.006959999911487103,-0.04552999883890152,-0.01971999928355217,1160,1160,1160,1160,0,0,0,0,0,0
4730,4.600488662719727,13.739018440246582,293.9106750488281,-0.7277734279632568,3.67138147354126,16.062477111816403,14.613858222961426,-21.677474975585934,-68.53751373291016,-0.025520000606775284,-0.06031999737024307,-0.018850000575184826,1160,1160,1160,1160,0,0,0,0,0,0
4732,4.262360095977783,13.61428451538086,293.9314270019531,-0.7233447432518005,3.6697995662689213,16.052406311035153,14.578795433044435,-21.720090866088867,-68.55359649658203,-0.025520000606775284,-0.06031999737024307,-0.018850000575184826,1160,1160,1160,1160,0,0,0,0,0,0
4734,3.970792531967163,13.506653785705565,293.9443664550781,-0.728403627872467,3.6691710948944087,16.058443069458008,14.56512451171875,-21.754728317260746,-68.56197357177734,-0.025520000606775284,-0.06031999737024307,-0.018850000575184826,1160,1160,1160,1160,0,0,0,0,0,0
4736,3.71911096572876,13.413697242736815,293.9505615234375,-0.7318722009658813,3.668609619140625,16.064577102661133,14.562066078186035,-21.76223373413086,-68.57753753662111,-0.025520000606775284,-0.06031999737024307,-0.018850000575184826,1160,1160,1160,1160,0,0,0,0,0,0
4738,3.501886367797852,13.334142684936525,293.951171875,-0.7347832918167114,3.6697335243225098,16.07073974609375,14.638726234436035,-21.73341560363769,-68.5765380859375,-0.025520000606775284,-0.06031999737024307,-0.018850000575184826,1160,1160,1160,1160,0,0,0,0,0,0
4740,3.31135630607605,13.264541625976562,293.9469909667969,-0.7298975586891174,3.665382623672485,16.06703758239746,14.631169319152832,-21.73766326904297,-68.56966400146484,-0.025520000606775284,-0.06031999737024307,-0.018850000575184826,1160,1160,1160,1160,0,0,0,0,0,0
4742,3.147502899169922,13.203758239746096,293.93878173828125,-0.7343140244483948,3.6658785343170166,16.080316543579098,14.585415840148926,-21.76476287841797,-68.56439971923828,-0.025520000606775284,-0.06031999737024307,-0.018850000575184826,1160,1160,1160,1160,0,0,0,0,0,0
4744,3.006698608398437,13.15169620513916,293.92730712890625,-0.7382789850234985,3.668198585510254,16.089073181152347,14.558327674865724,-21.766061782836914,-68.58287811279297,-0.025520000606775284,-0.06031999737024307,-0.018850000575184826,1160,1160,1160,1160,0,0,0,0,0,0
4746,2.7966110706329346,13.048789978027346,294.375,-0.7355393171310425,3.6702492237091056,16.097000122070312,14.612944602966307,-21.7468318939209,-68.59654235839844,-0.048429999500513084,-0.06814999878406525,-0.013050000183284284,1160,1160,1160,1160,0,0,0,0,0,0
4748,2.609287738800049,12.957581520080565,294.8047180175781,-0.7321496605873108,3.670040845870972,16.106687545776367,14.685585021972654,-21.709836959838867,-68.58039093017578,-0.048429999500513084,-0.06814999878406525,-0.013050000183284284,1160,1160,1160,1160,0,0,0,0,0,0
4750,2.4425511360168457,12.87883472442627,295.2167663574219,-0.7278640866279602,3.6728596687316895,16.101396560668945,14.725716590881348,-21.66985321044922,-68.56161499023439,-0.048429999500513084,-0.06814999878406525,-0.013050000183284284,1160,1160,1160,1160,0,0,0,0,0,0
4752,2.2958879470825195,12.810591697692873,295.6117858886719,-0.7283133864402771,3.6719989776611333,16.08892822265625,14.71042251586914,-21.725872039794922,-68.54325103759766,-0.048429999500513084,-0.06814999878406525,-0.013050000183284284,1160,1160,1160,1160,0,0,0,0,0,0
4754,2.168374538421631,12.75182056427002,295.9904479980469,-0.7317183613777161,3.67067289352417,16.072517395019528,14.62022590637207,-21.78695297241211,-68.51345825195311,-0.048429999500513084,-0.06814999878406525,-0.013050000183284284,1160,1160,1160,1160,0,0,0,0,0,0
4756,2.0555901527404785,12.699711799621582,296.3533020019531,-0.7279723286628723,3.6687836647033687,16.079048156738278,14.514225006103516,-21.83250617980957,-68.51529693603516,-0.048429999500513084,-0.06814999878406525,-0.013050000183284284,1160,1160,1160,1160,0,0,0,0,0,0
4758,1.9559162855148315,12.654189109802244,296.7010498046875,-0.7235383391380309,3.667799949645996,16.081579208374027,14.42373752593994,-21.87486457824707,-68.52446746826172,-0.048429999500513084,-0.06814999878406525,-0.013050000183284284,1160,1160,1160,1160,0,0,0,0,0,0
4760,1.869571328163147,12.614876747131348,297.0342712402344,-0.7238432168960571,3.6674311161041264,16.084236145019528,14.398585319519045,-21.905628204345703,-68.52459716796875,-0.048429999500513084,-0.06814999878406525,-0.013050000183284284,1160,1160,1160,1160,0,0,0,0,0,0
4762,1.680658936500549,12.404542922973633,298.1861877441406,-0.729547917842865,3.671010732650757,16.078771591186527,14.39903736114502,-21.903291702270508,-68.51734161376953,-0.09337999671697617,-0.0414699986577034,-0.019430000334978104,1160,1160,1160,1160,0,0,0,0,0,0
4764,1.5118491649627686,12.212653160095215,299.3143615722656,-0.7327210307121277,3.673052072525024,16.083810806274414,14.414229393005373,-21.90943717956543,-68.51467132568361,-0.09337999671697617,-0.0414699986577034,-0.019430000334978104,1160,1160,1160,1160,0,0,0,0,0,0
4766,1.3617395162582395,12.036893844604492,300.4171447753906,-0.7351471185684204,3.671215534210205,16.09023094177246,14.417302131652832,-21.89497184753418,-68.52681732177734,-0.09337999671697617,-0.0414699986577034,-0.019430000334978104,1160,1160,1160,1160,0,0,0,0,0,0
4768,1.2292526960372925,11.877679824829102,301.4944152832031,-0.7367808818817139,3.669637441635132,16.078269958496097,14.494063377380373,-21.84214973449707,-68.57264709472656,-0.09337999671697617,-0.0414699986577034,-0.019430000334978104,1160,1160,1160,1160,0,0,0,0,0,0
4770,1.1135350465774536,11.733927726745605,302.546142578125,-0.7394907474517822,3.6679322719573975,16.06954574584961,14.575108528137207,-21.76128387451172,-68.62195587158203,-0.09337999671697617,-0.0414699986577034,-0.019430000334978104,1160,1160,1160,1160,0,0,0,0,0,0
4772,1.0137194395065308,11.605472564697266,303.57244873046875,-0.7430492639541626,3.6679384708404537,16.055583953857422,14.635268211364744,-21.680606842041016,-68.64806365966797,-0.09337999671697617,-0.0414699986577034,-0.019430000334978104,1160,1160,1160,1160,0,0,0,0,0,0
4774,0.9277024269104004,11.490449905395508,304.57342529296875,-0.7440035939216614,3.668485164642334,16.061725616455078,14.70006275177002,-21.66043472290039,-68.66773223876953,-0.09337999671697617,-0.0414699986577034,-0.019430000334978104,1160,1160,1160,1160,0,0,0,0,0,0
4776,0.8549602031707764,11.388019561767578,305.54925537109375,-0.7465143203735352,3.668910264968872,16.068883895874027,14.779715538024902,-21.58873176574707,-68.68254089355469,-0.09337999671697617,-0.0414699986577034,-0.019430000334978104,1160,1160,1160,1160,0,0,0,0,0,0
4778,0.8463805913925171,11.409823417663574,305.90679931640625,-0.7501430511474609,3.6663577556610103,16.062786102294922,14.844415664672852,-21.531536102294922,-68.67489624023439,-0.04262999817728996,-0.042920000851154334,-0.01768999919295311,1160,1160,1160,1160,0,0,0,0,0,0
4779,0.8449153006076813,11.421263217926025,306.0789031982422,-0.7505223751068115,3.66702663898468,16.065494537353516,14.817817211151123,-21.5462589263916,-68.65860748291016,-0.04262999817728996,-0.042920000851154334,-0.01768999919295311,1160,1160,1160,1160,0,0,0,0,0,0
4780,0.8434500098228455,11.432703018188475,306.2510070800781,-0.7509016990661621,3.6676955223083496,16.06820297241211,14.791218757629395,-21.56098175048828,-68.64231872558594,-0.04262999817728996,-0.042920000851154334,-0.01768999919295311,1160,1160,1160,1160,0,0,0,0,0,0
4782,0.8441441059112549,11.455780029296875,306.5831604003906,-0.7474186420440674,3.666303873062134,16.073600769042972,14.739142417907715,-21.586301803588867,-68.62520599365234,-0.04262999817728996,-0.042920000851154334,-0.01768999919295311,1160,1160,1160,1160,0,0,0,0,0,0
4784,0.8495054841041565,11.480454444885256,306.90362548828125,-0.7483183741569519,3.667210578918457,16.067510604858402,14.670467376708984,-21.628074645996094,-68.61729431152344,-0.04262999817728996,-0.042920000851154334,-0.01768999919295311,1160,1160,1160,1160,0,0,0,0,0,0
4786,0.8583128452301025,11.504688262939453,307.2128601074219,-0.7478082776069641,3.6653439998626713,16.07516860961914,14.647488594055176,-21.660682678222656,-68.60511779785156,-0.04262999817728996,-0.042920000851154334,-0.01768999919295311,1160,1160,1160,1160,0,0,0,0,0,0
4788,0.8702064752578735,11.530033111572266,307.5112609863281,-0.7464547753334045,3.663465976715088,16.062700271606445,14.70612335205078,-21.636028289794922,-68.59172058105469,-0.04262999817728996,-0.042920000851154334,-0.01768999919295311,1160,1160,1160,1160,0,0,0,0,0,0
4790,0.8862588405609131,11.55539608001709,307.7991638183594,-0.7515360713005066,3.66654109954834,16.083227157592773,14.729599952697756,-21.6612606048584,-68.58451080322266,-0.04262999817728996,-0.042920000851154334,-0.01768999919295311,1160,1160,1160,1160,0,0,0,0,0,0
4792,0.9058456420898438,11.581620216369627,308.0770568847656,-0.7554881572723389,3.669006824493408,16.088476181030273,14.76733112335205,-21.652278900146484,-68.56712341308594,-0.04262999817728996,-0.042920000851154334,-0.01768999919295311,1160,1160,1160,1160,0,0,0,0,0,0
4794,0.898145854473114,11.551037788391113,308.83416748046875,-0.7559675574302673,3.665427923202514,16.083751678466793,14.726083755493164,-21.66275405883789,-68.55010223388672,-0.0838100016117096,-0.04495000094175339,-0.012760000303387642,1160,1160,1160,1160,0,0,0,0,0,0
4796,0.8962195515632629,11.526780128479006,309.5699157714844,-0.7582145929336548,3.666301012039185,16.08001708984375,14.691606521606445,-21.6489200592041,-68.57921600341797,-0.0838100016117096,-0.04495000094175339,-0.012760000303387642,1160,1160,1160,1160,0,0,0,0,0,0
4798,0.8982900381088257,11.509378433227539,310.28411865234375,-0.7550573348999023,3.66850209236145,16.06511116027832,14.736040115356445,-21.60154914855957,-68.60476684570311,-0.0838100016117096,-0.04495000094175339,-0.012760000303387642,1160,1160,1160,1160,0,0,0,0,0,0
4800,0.9052197337150574,11.49657154083252,310.9773254394531,-0.7573296427726746,3.66649866104126,16.0618896484375,14.79133415222168,-21.55016326904297,-68.61057281494139,-0.0838100016117096,-0.04495000094175339,-0.012760000303387642,1160,1160,1160,1160,0,0,0,0,0,0
4802,0.9167041182518004,11.487741470336914,311.6499328613281,-0.7609241604804993,3.6640012264251713,16.059024810791016,14.798255920410154,-21.5853214263916,-68.61625671386719,-0.0838100016117096,-0.04495000094175339,-0.012760000303387642,1160,1160,1160,1160,0,0,0,0,0,0
4804,0.9304397702217102,11.483331680297852,312.30230712890625,-0.7580221891403198,3.666578531265259,16.063552856445312,14.75635814666748,-21.634347915649414,-68.61148834228516,-0.0838100016117096,-0.04495000094175339,-0.012760000303387642,1160,1160,1160,1160,0,0,0,0,0,0
4806,0.945842444896698,11.483108520507812,312.93487548828125,-0.7536830902099609,3.667803049087525,16.058069229125973,14.672566413879395,-21.68856239318848,-68.60533905029297,-0.0838100016117096,-0.04495000094175339,-0.012760000303387642,1160,1160,1160,1160,0,0,0,0,0,0
4808,0.965377688407898,11.485050201416016,313.548095703125,-0.7598842978477478,3.665006399154663,16.065196990966793,14.65101718902588,-21.702035903930664,-68.61112976074219,-0.0838100016117096,-0.04495000094175339,-0.012760000303387642,1160,1160,1160,1160,0,0,0,0,0,0
4810,1.047643780708313,11.574732780456545,313.6450500488281,-0.7638700604438782,3.668910026550293,16.067777633666992,14.688929557800293,-21.65736198425293,-68.58875274658203,-0.03683000057935715,-0.03537999838590622,-0.013050000183284284,1160,1160,1160,1160,0,0,0,0,0,0
4812,1.1219545602798462,11.656485557556152,313.7398681640625,-0.7598973512649536,3.667760610580444,16.060590744018555,14.70981502532959,-21.64724349975586,-68.57719421386719,-0.03683000057935715,-0.03537999838590622,-0.013050000183284284,1160,1160,1160,1160,0,0,0,0,0,0
4814,1.1899224519729614,11.731352806091307,313.8327331542969,-0.7586723566055298,3.66706919670105,16.05096435546875,14.657980918884276,-21.66142463684082,-68.57324981689453,-0.03683000057935715,-0.03537999838590622,-0.013050000183284284,1160,1160,1160,1160,0,0,0,0,0,0
4816,1.2514852285385132,11.802328109741213,313.9235534667969,-0.7550408244132996,3.672005653381348,16.036857604980472,14.71934986114502,-21.613832473754886,-68.57528686523439,-0.03683000057935715,-0.03537999838590622,-0.013050000183284284,1160,1160,1160,1160,0,0,0,0,0,0
4818,1.3074914216995241,11.86800479888916,314.0123291015625,-0.752366840839386,3.672135591506958,16.02656364440918,14.789745330810547,-21.57189178466797,-68.56990051269531,-0.03683000057935715,-0.03537999838590622,-0.013050000183284284,1160,1160,1160,1160,0,0,0,0,0,0
4820,1.3600631952285769,11.929436683654785,314.0989074707031,-0.754713237285614,3.6747450828552246,16.01846694946289,14.81735610961914,-21.521020889282227,-68.58088684082031,-0.03683000057935715,-0.03537999838590622,-0.013050000183284284,1160,1160,1160,1160,0,0,0,0,0,0
4822,1.4067569971084597,11.98614501953125,314.183349609375,-0.7496079802513123,3.67799711227417,16.023981094360348,14.791285514831545,-21.525318145751953,-68.57835388183594,-0.03683000057935715,-0.03537999838590622,-0.013050000183284284,1160,1160,1160,1160,0,0,0,0,0,0
4824,1.4496619701385498,12.037176132202148,314.2655029296875,-0.7493921518325806,3.677345752716065,16.029939651489258,14.697906494140625,-21.566936492919922,-68.59947967529297,-0.03683000057935715,-0.03537999838590622,-0.013050000183284284,1160,1160,1160,1160,0,0,0,0,0,0
4826,2.2942373752593994,12.621792793273926,312.9166564941406,-0.7480611205101013,3.678650379180908,16.033159255981445,14.659602165222168,-21.564403533935547,-68.62754058837889,-0.013629999943077564,-0.0432099997997284,-0.01971999928355217,1160,1160,1160,1160,0,0,0,0,0,0
4828,2.9900050163269043,13.096421241760256,311.6287536621094,-0.7560662031173706,3.6808969974517822,16.038270950317386,14.613251686096193,-21.560710906982425,-68.64762878417969,-0.013629999943077564,-0.0432099997997284,-0.01971999928355217,1160,1160,1160,1160,0,0,0,0,0,0
4830,3.542486906051636,13.469347953796387,310.4067687988281,-0.7591022253036499,3.681257963180542,16.02351951599121,14.65491008758545,-21.52088737487793,-68.66583251953125,-0.013629999943077564,-0.0432099997997284,-0.01971999928355217,1160,1160,1160,1160,0,0,0,0,0,0
4832,3.964455604553223,13.752140045166016,309.2540283203125,-0.7577012777328491,3.680101156234741,16.004558563232422,14.711915016174315,-21.475719451904297,-68.67920684814453,-0.013629999943077564,-0.0432099997997284,-0.01971999928355217,1160,1160,1160,1160,0,0,0,0,0,0
4834,4.271958827972412,13.95535659790039,308.1699523925781,-0.7515246868133545,3.6748142242431636,15.993508338928224,14.701336860656738,-21.51095390319824,-68.66869354248047,-0.013629999943077564,-0.0432099997997284,-0.01971999928355217,1160,1160,1160,1160,0,0,0,0,0,0
4836,4.487727165222168,14.095255851745605,307.15325927734375,-0.7505307197570801,3.674072265625,15.988503456115724,14.652629852294922,-21.494911193847656,-68.65396118164061,-0.013629999943077564,-0.0432099997997284,-0.01971999928355217,1160,1160,1160,1160,0,0,0,0,0,0
4838,4.630464553833008,14.183161735534668,306.2000427246094,-0.751476526260376,3.674641370773315,16.003154754638672,14.628555297851562,-21.462255477905273,-68.64988708496094,-0.013629999943077564,-0.0432099997997284,-0.01971999928355217,1160,1160,1160,1160,0,0,0,0,0,0
4840,4.716119289398193,14.233511924743652,305.30657958984375,-0.7527920007705688,3.677032470703125,16.003814697265625,14.599087715148926,-21.466350555419922,-68.65621948242189,-0.013629999943077564,-0.0432099997997284,-0.01971999928355217,1160,1160,1160,1160,0,0,0,0,0,0
4842,4.4217071533203125,13.996682167053224,306.15716552734375,-0.7505097389221191,3.676239490509033,16.003210067749027,14.589412689208984,-21.422122955322266,-68.68160247802734,-0.06640999764204025,-0.03653999790549278,-0.011889999732375143,1160,1160,1160,1160,0,0,0,0,0,0
4844,4.15061616897583,13.779707908630373,306.9841613769531,-0.7484884858131409,3.6750338077545166,15.998001098632812,14.63452434539795,-21.396751403808594,-68.69907379150389,-0.06640999764204025,-0.03653999790549278,-0.011889999732375143,1160,1160,1160,1160,0,0,0,0,0,0
4846,3.902522087097168,13.581366539001465,307.7872314453125,-0.7504138946533203,3.672776222229004,15.985882759094238,14.680157661437988,-21.364582061767575,-68.72061920166016,-0.06640999764204025,-0.03653999790549278,-0.011889999732375143,1160,1160,1160,1160,0,0,0,0,0,0
4848,3.676095724105835,13.3992338180542,308.5665588378906,-0.7537375092506409,3.6704065799713135,15.996847152709961,14.783831596374512,-21.325725555419922,-68.72840881347656,-0.06640999764204025,-0.03653999790549278,-0.011889999732375143,1160,1160,1160,1160,0,0,0,0,0,0
4850,3.4683070182800293,13.234260559082033,309.3224792480469,-0.7510995864868164,3.675268173217773,16.005598068237305,14.85877513885498,-21.33941650390625,-68.71537017822266,-0.06640999764204025,-0.03653999790549278,-0.011889999732375143,1160,1160,1160,1160,0,0,0,0,0,0
4852,3.278848886489868,13.08462619781494,310.0553283691406,-0.7511063814163208,3.6750547885894775,16.002761840820312,14.896733283996582,-21.319093704223636,-68.72180938720703,-0.06640999764204025,-0.03653999790549278,-0.011889999732375143,1160,1160,1160,1160,0,0,0,0,0,0
4854,3.107165098190308,12.949740409851074,310.76544189453125,-0.7541468739509583,3.6793248653411865,16.011816024780273,14.913237571716307,-21.29187774658203,-68.74138641357422,-0.06640999764204025,-0.03653999790549278,-0.011889999732375143,1160,1160,1160,1160,0,0,0,0,0,0
4856,2.951237440109253,12.828716278076172,311.45330810546875,-0.753871738910675,3.681232690811157,16.008678436279293,14.927921295166016,-21.292882919311523,-68.72954559326172,-0.06640999764204025,-0.03653999790549278,-0.011889999732375143,1160,1160,1160,1160,0,0,0,0,0,0
4858,2.8371973037719727,12.754146575927734,312.1166687011719,-0.7567042708396912,3.682072639465332,16.017827987670902,14.880340576171875,-21.3288516998291,-68.71353912353516,-0.08235999941825868,-0.044369999319314964,-0.009859999641776085,1160,1160,1160,1160,0,0,0,0,0,0
4860,2.733884572982788,12.687063217163086,312.7591247558594,-0.7578097581863403,3.682030439376831,16.021713256835938,14.911942481994627,-21.36058807373047,-68.68606567382811,-0.08235999941825868,-0.044369999319314964,-0.009859999641776085,1160,1160,1160,1160,0,0,0,0,0,0
4862,2.638918876647949,12.62607479095459,313.3811340332031,-0.7528828978538513,3.67999267578125,16.032617568969727,14.96353244781494,-21.372472763061523,-68.67539215087889,-0.08235999941825868,-0.044369999319314964,-0.009859999641776085,1160,1160,1160,1160,0,0,0,0,0,0
4864,2.5538578033447266,12.570655822753904,313.983154296875,-0.7565340399742126,3.6797275543212886,16.05344009399414,15.024361610412598,-21.37088203430176,-68.65313720703125,-0.08235999941825868,-0.044369999319314964,-0.009859999641776085,1160,1160,1160,1160,0,0,0,0,0,0
4866,2.477181434631348,12.520777702331545,314.565673828125,-0.7564570903778076,3.6777946949005127,16.05924415588379,15.032276153564453,-21.36810874938965,-68.63136291503906,-0.08235999941825868,-0.044369999319314964,-0.009859999641776085,1160,1160,1160,1160,0,0,0,0,0,0
4868,2.4085609912872314,12.474935531616213,315.129150390625,-0.7576355338096619,3.6719663143157963,16.06779670715332,15.076906204223633,-21.36900520324707,-68.6041259765625,-0.08235999941825868,-0.044369999319314964,-0.009859999641776085,1160,1160,1160,1160,0,0,0,0,0,0
4870,2.347277879714966,12.433359146118164,315.674072265625,-0.7578579783439636,3.6656217575073238,16.065620422363278,15.127971649169922,-21.36385154724121,-68.57598876953125,-0.08235999941825868,-0.044369999319314964,-0.009859999641776085,1160,1160,1160,1160,0,0,0,0,0,0
4872,2.292802095413208,12.395931243896484,316.2008972167969,-0.758404016494751,3.66006851196289,16.06179428100586,15.130757331848145,-21.393774032592773,-68.54993438720703,-0.08235999941825868,-0.044369999319314964,-0.009859999641776085,1160,1160,1160,1160,0,0,0,0,0,0
4874,2.8367037773132324,12.722092628479006,313.8923034667969,-0.7597926259040833,3.6593892574310303,16.053386688232422,15.118728637695312,-21.384572982788086,-68.52295684814453,-0.00812000036239624,-0.07337000221014023,-0.0031900000758469105,1160,1160,1160,1160,0,0,0,0,0,0
4876,3.3165709972381587,12.999995231628418,311.598876953125,-0.7558665871620178,3.6569437980651855,16.043628692626953,15.10105800628662,-21.396039962768555,-68.49948883056639,-0.00812000036239624,-0.07337000221014023,-0.0031900000758469105,1160,1160,1160,1160,0,0,0,0,0,0
4878,3.7289323806762695,13.227910995483398,309.3303527832031,-0.7556102871894836,3.661352872848511,16.0625,15.07785701751709,-21.427818298339844,-68.4971923828125,-0.00812000036239624,-0.07337000221014023,-0.0031900000758469105,1160,1160,1160,1160,0,0,0,0,0,0
4880,4.06954288482666,13.40868091583252,307.10595703125,-0.751139760017395,3.6653389930725098,16.066543579101562,15.006465911865234,-21.454225540161133,-68.50969696044922,-0.00812000036239624,-0.07337000221014023,-0.0031900000758469105,1160,1160,1160,1160,0,0,0,0,0,0
4882,4.343442916870116,13.543256759643555,304.94635009765625,-0.7564877271652222,3.665350437164306,16.069744110107422,14.92330265045166,-21.518779754638672,-68.51012420654297,-0.00812000036239624,-0.07337000221014023,-0.0031900000758469105,1160,1160,1160,1160,0,0,0,0,0,0
4884,4.547924518585205,13.636452674865724,302.86846923828125,-0.7515313625335693,3.664228439331055,16.06791114807129,14.899423599243164,-21.54241180419922,-68.51792144775389,-0.00812000036239624,-0.07337000221014023,-0.0031900000758469105,1160,1160,1160,1160,0,0,0,0,0,0
4886,4.6896491050720215,13.697208404541016,300.88909912109375,-0.7486242651939392,3.6672868728637695,16.057157516479492,14.883423805236815,-21.52824211120605,-68.55065155029297,-0.00812000036239624,-0.07337000221014023,-0.0031900000758469105,1160,1160,1160,1160,0,0,0,0,0,0
4888,4.775272846221924,13.729567527770994,299.0199890136719,-0.7451378703117371,3.6683876514434814,16.052373886108402,14.91053867340088,-21.490182876586914,-68.58713531494139,-0.00812000036239624,-0.07337000221014023,-0.0031900000758469105,1160,1160,1160,1160,0,0,0,0,0,0
4890,4.418684005737305,13.566849708557127,299.3580017089844,-0.7511129975318909,3.671675443649292,16.060714721679688,14.976905822753904,-21.41779327392578,-68.62431335449219,-0.049879997968673706,-0.06757000088691711,-0.017980000004172325,1160,1160,1160,1160,0,0,0,0,0,0
4892,4.100470066070557,13.423203468322756,299.6770324707031,-0.7529662847518921,3.6729462146759033,16.062301635742188,15.00794792175293,-21.355100631713867,-68.63561248779297,-0.049879997968673706,-0.06757000088691711,-0.017980000004172325,1160,1160,1160,1160,0,0,0,0,0,0
4894,3.8157939910888667,13.298770904541016,299.98028564453125,-0.7494924068450928,3.673162698745728,16.039573669433597,15.033906936645508,-21.35622215270996,-68.63192749023439,-0.049879997968673706,-0.06757000088691711,-0.017980000004172325,1160,1160,1160,1160,0,0,0,0,0,0
4896,3.5624759197235107,13.191168785095215,300.2684631347656,-0.7496094703674316,3.674454927444458,16.026309967041016,15.041621208190918,-21.37059593200684,-68.61502838134766,-0.049879997968673706,-0.06757000088691711,-0.017980000004172325,1160,1160,1160,1160,0,0,0,0,0,0
4898,3.336289882659912,13.099003791809082,300.5423889160156,-0.7462277412414551,3.677281618118286,16.013076782226562,14.9813232421875,-21.397993087768555,-68.58667755126953,-0.049879997968673706,-0.06757000088691711,-0.017980000004172325,1160,1160,1160,1160,0,0,0,0,0,0
4900,3.134649515151977,13.018146514892578,300.80267333984375,-0.7437966465950012,3.675079822540283,16.009441375732422,14.86918830871582,-21.46593475341797,-68.55743408203125,-0.049879997968673706,-0.06757000088691711,-0.017980000004172325,1160,1160,1160,1160,0,0,0,0,0,0
4902,2.957367420196533,12.948162078857422,301.0500183105469,-0.7487536072731018,3.679187774658203,16.02272605895996,14.762370109558105,-21.524259567260746,-68.54357147216797,-0.049879997968673706,-0.06757000088691711,-0.017980000004172325,1160,1160,1160,1160,0,0,0,0,0,0
4904,2.7987945079803467,12.886444091796875,301.28509521484375,-0.7443401217460632,3.6793715953826895,16.037689208984375,14.669600486755373,-21.594844818115234,-68.52852630615234,-0.049879997968673706,-0.06757000088691711,-0.017980000004172325,1160,1160,1160,1160,0,0,0,0,0,0
4906,2.63759994506836,12.775965690612793,302.0882263183594,-0.7408398985862732,3.6787421703338623,16.048616409301758,14.687943458557127,-21.58942031860352,-68.53003692626953,-0.056549999862909324,-0.03799000009894371,-0.007829999551177025,1160,1160,1160,1160,0,0,0,0,0,0
4908,2.4918382167816158,12.676637649536133,302.868896484375,-0.7407997846603394,3.679799795150757,16.04762840270996,14.748679161071776,-21.534626007080078,-68.53298950195311,-0.056549999862909324,-0.03799000009894371,-0.007829999551177025,1160,1160,1160,1160,0,0,0,0,0,0
4910,2.361566066741944,12.586402893066404,303.626708984375,-0.7451137900352478,3.67619252204895,16.045944213867188,14.797807693481445,-21.49284172058105,-68.54769134521484,-0.056549999862909324,-0.03799000009894371,-0.007829999551177025,1160,1160,1160,1160,0,0,0,0,0,0
4912,2.243980884552002,12.505386352539062,304.3619384765625,-0.7427134513854979,3.673206329345703,16.03441047668457,14.81935214996338,-21.506067276000977,-68.56356048583984,-0.056549999862909324,-0.03799000009894371,-0.007829999551177025,1160,1160,1160,1160,0,0,0,0,0,0
4914,2.139068841934204,12.432297706604006,305.0750732421875,-0.7441385984420776,3.670180320739746,16.035402297973633,14.878789901733398,-21.498550415039066,-68.56581878662111,-0.056549999862909324,-0.03799000009894371,-0.007829999551177025,1160,1160,1160,1160,0,0,0,0,0,0
4916,2.0455400943756104,12.365415573120115,305.7665100097656,-0.7449969053268433,3.665818452835083,16.05080795288086,14.941397666931152,-21.52132606506348,-68.56211090087889,-0.056549999862909324,-0.03799000009894371,-0.007829999551177025,1160,1160,1160,1160,0,0,0,0,0,0
4918,1.9635065793991089,12.3067626953125,306.4366455078125,-0.7493271231651306,3.669595956802368,16.059059143066403,14.951062202453613,-21.558185577392575,-68.52454376220703,-0.056549999862909324,-0.03799000009894371,-0.007829999551177025,1160,1160,1160,1160,0,0,0,0,0,0
4920,1.892550468444824,12.255169868469238,307.08599853515625,-0.7551208138465881,3.671075105667114,16.066160202026367,14.926594734191895,-21.57631492614746,-68.49956512451172,-0.056549999862909324,-0.03799000009894371,-0.007829999551177025,1160,1160,1160,1160,0,0,0,0,0,0
4922,1.8848742842674255,12.264246463775635,307.14599609375,-0.7574102580547333,3.668695092201233,16.0663480758667,14.886591911315918,-21.57316017150879,-68.49398803710938,-0.052489999681711204,-0.04799499921500683,-0.013049999251961708,1160,1160,1160,1160,0,0,0,0,0,0
4923,1.8771981000900269,12.273323059082033,307.20599365234375,-0.7596997022628784,3.666315078735352,16.066535949707028,14.84658908843994,-21.57000541687012,-68.48841094970703,-0.048429999500513084,-0.05799999833106995,-0.01826999895274639,1160,1160,1160,1160,0,0,0,0,0,0
4924,1.8654171228408811,12.289928436279295,307.3206787109375,-0.761184573173523,3.662633895874024,16.058595657348633,14.746142387390135,-21.612058639526367,-68.46863555908203,-0.048429999500513084,-0.05799999833106995,-0.01826999895274639,1160,1160,1160,1160,0,0,0,0,0,0
4926,1.854553461074829,12.305928230285645,307.4306640625,-0.756165087223053,3.6617341041564937,16.053770065307614,14.669940948486328,-21.65097045898437,-68.46404266357422,-0.048429999500513084,-0.05799999833106995,-0.01826999895274639,1160,1160,1160,1160,0,0,0,0,0,0
4928,1.8454667329788208,12.321954727172852,307.53619384765625,-0.7541857361793518,3.663175821304321,16.050662994384766,14.579118728637695,-21.68439292907715,-68.45511627197266,-0.048429999500513084,-0.05799999833106995,-0.01826999895274639,1160,1160,1160,1160,0,0,0,0,0,0
4929,1.8416831493377686,12.32878065109253,307.5867919921875,-0.7537839412689209,3.66304349899292,16.060463905334473,14.517700672149658,-21.723737716674805,-68.4418830871582,-0.048429999500513084,-0.05799999833106995,-0.01826999895274639,1160,1160,1160,1160,0,0,0,0,0,0
4930,1.8378995656967163,12.335606575012207,307.63739013671875,-0.75338214635849,3.662911176681519,16.07026481628418,14.45628261566162,-21.76308250427246,-68.42864990234375,-0.048429999500513084,-0.05799999833106995,-0.01826999895274639,1160,1160,1160,1160,0,0,0,0,0,0
4932,1.8307846784591677,12.347928047180176,307.73443603515625,-0.7496326565742493,3.664055824279785,16.08563232421875,14.362587928771973,-21.806636810302734,-68.42932891845703,-0.048429999500513084,-0.05799999833106995,-0.01826999895274639,1160,1160,1160,1160,0,0,0,0,0,0
4934,1.8236061334609983,12.360909461975098,307.82745361328125,-0.7438758611679077,3.66646957397461,16.082767486572266,14.315122604370115,-21.85667610168457,-68.45359802246094,-0.048429999500513084,-0.05799999833106995,-0.01826999895274639,1160,1160,1160,1160,0,0,0,0,0,0
4936,1.8177722692489624,12.373208045959473,307.9166259765625,-0.7427626848220825,3.6669402122497563,16.08664321899414,14.2288236618042,-21.923954010009766,-68.46701812744139,-0.048429999500513084,-0.05799999833106995,-0.01826999895274639,1160,1160,1160,1160,0,0,0,0,0,0
4938,1.880759596824646,12.442794799804688,307.793701171875,-0.7447800040245056,3.6694509983062735,16.06996726989746,14.188600540161133,-21.955081939697266,-68.489013671875,-0.0432099997997284,-0.061189997941255576,-0.017400000244379044,1160,1160,1160,1160,0,0,0,0,0,0
4940,1.9387820959091189,12.504165649414062,307.6779479980469,-0.7547881603240967,3.6715819835662837,16.067138671875,14.22887897491455,-21.892780303955078,-68.53122711181639,-0.0432099997997284,-0.061189997941255576,-0.017400000244379044,1160,1160,1160,1160,0,0,0,0,0,0
4942,1.9889920949935915,12.55860424041748,307.56884765625,-0.7550230622291565,3.6739890575408936,16.06181526184082,14.241756439208984,-21.821901321411133,-68.569580078125,-0.0432099997997284,-0.061189997941255576,-0.017400000244379044,1160,1160,1160,1160,0,0,0,0,0,0
4944,2.03259015083313,12.605709075927734,307.46588134765625,-0.7568343281745911,3.676394939422608,16.07075309753418,14.20125961303711,-21.806528091430664,-68.59976196289061,-0.0432099997997284,-0.061189997941255576,-0.017400000244379044,1160,1160,1160,1160,0,0,0,0,0,0
4946,2.0713624954223637,12.644253730773926,307.3685607910156,-0.7616957426071167,3.6751322746276855,16.091053009033207,14.210294723510742,-21.780569076538086,-68.61602020263672,-0.0432099997997284,-0.061189997941255576,-0.017400000244379044,1160,1160,1160,1160,0,0,0,0,0,0
4948,2.1053323745727544,12.677671432495115,307.2765197753906,-0.763850748538971,3.674975872039795,16.087116241455078,14.247161865234375,-21.75023078918457,-68.63341522216797,-0.0432099997997284,-0.061189997941255576,-0.017400000244379044,1160,1160,1160,1160,0,0,0,0,0,0
4950,2.1348235607147217,12.70475959777832,307.18939208984375,-0.7651548981666565,3.670399427413941,16.085397720336914,14.23015308380127,-21.70110893249512,-68.64601135253906,-0.0432099997997284,-0.061189997941255576,-0.017400000244379044,1160,1160,1160,1160,0,0,0,0,0,0
4952,2.1577377319335938,12.726330757141113,307.10675048828125,-0.7592343091964722,3.665439367294312,16.08029556274414,14.163348197937012,-21.70350456237793,-68.66127777099611,-0.0432099997997284,-0.061189997941255576,-0.017400000244379044,1160,1160,1160,1160,0,0,0,0,0,0
4954,2.10858416557312,12.689762115478516,307.22979736328125,-0.7513002753257751,3.6623728275299072,16.058517456054688,14.111228942871096,-21.7311954498291,-68.65555572509766,-0.044369999319314964,-0.05364999920129776,-0.01826999895274639,1160,1160,1160,1160,0,0,0,0,0,0
4956,2.067047357559204,12.659124374389648,307.346923828125,-0.7535441517829895,3.6632604598999023,16.052711486816403,14.032179832458494,-21.766847610473636,-68.64700317382811,-0.044369999319314964,-0.05364999920129776,-0.01826999895274639,1160,1160,1160,1160,0,0,0,0,0,0
4958,2.0311779975891118,12.633058547973633,307.45843505859375,-0.7526263594627379,3.66180682182312,16.045415878295902,13.976923942565918,-21.807920455932614,-68.63421630859375,-0.044369999319314964,-0.05364999920129776,-0.01826999895274639,1160,1160,1160,1160,0,0,0,0,0,0
4960,1.997870922088623,12.610715866088867,307.5647277832031,-0.7451384663581848,3.663084506988525,16.05665397644043,14.02756404876709,-21.78072929382324,-68.63203430175781,-0.044369999319314964,-0.05364999920129776,-0.01826999895274639,1160,1160,1160,1160,0,0,0,0,0,0
4962,1.9677653312683103,12.591819763183596,307.6659851074219,-0.7399015426635742,3.662067413330078,16.055908203125,14.09483814239502,-21.746768951416016,-68.62693023681639,-0.044369999319314964,-0.05364999920129776,-0.01826999895274639,1160,1160,1160,1160,0,0,0,0,0,0
4964,1.9433904886245728,12.57772445678711,307.7626037597656,-0.7435806393623352,3.6681416034698486,16.061716079711914,14.09873867034912,-21.73027992248535,-68.61457061767578,-0.044369999319314964,-0.05364999920129776,-0.01826999895274639,1160,1160,1160,1160,0,0,0,0,0,0
4966,1.9225847721099851,12.566716194152832,307.854736328125,-0.7434650659561157,3.673215627670288,16.07771873474121,14.09813404083252,-21.735788345336914,-68.6275634765625,-0.044369999319314964,-0.05364999920129776,-0.01826999895274639,1160,1160,1160,1160,0,0,0,0,0,0
