rtosTick,pitch,roll,yaw,ax,ay,az,gx,gy,gz,mx,my,mz,m1CMD,m2CMD,m3CMD,m4CMD,asp,asr,asy,rsp,rsr,rsy
3751,1.0841364338994026,2.255226418375969,250.1241683959961,-0.00408467766828835,-0.020989621058106422,9.249735355377197,-0.06033223308622837,-0.1577561609447002,-0.05359303392469883,-0.10309499502181992,-0.05915999785065637,0.17602999508380904,995,860,1015,850,0,0,0,0,0,0
3756,0.04861868917942047,-0.08690109848976135,330.2706298828125,-0.004764735698699951,-0.02331613190472126,9.80276107788086,-0.12089890241622925,-0.22366255521774286,-0.08420547842979431,-0.20618999004364014,-0.11831999570131302,0.3520599901676178,995,860,1015,850,0,0,0,0,0,0
3758,0.041532963514327996,-0.09990804642438887,330.269287109375,-0.004963165149092674,-0.023329934105277058,9.802781105041504,-0.11392674595117568,-0.22463318705558774,-0.08243124932050705,-0.20618999004364014,-0.11831999570131302,0.3520599901676178,995,860,1015,850,0,0,0,0,0,0
3759,0.039317287504673004,-0.10437808930873871,330.26904296875,-0.005092626437544823,-0.023363662883639336,9.80279016494751,-0.11198902875185013,-0.22631619125604627,-0.0815628282725811,-0.20618999004364014,-0.11831999570131302,0.3520599901676178,1194,1032,1218,1008,0,0,0,0,0,0
3760,0.037101611495018005,-0.10884813219308853,330.268798828125,-0.005222087725996971,-0.02339739166200161,9.802799224853516,-0.11005131155252457,-0.2279991954565048,-0.08069440722465515,-0.20618999004364014,-0.11831999570131302,0.3520599901676178,1194,1032,1218,1008,0,0,0,8,0,0
3762,0.03437913209199905,-0.11499030143022534,330.2688903808594,-0.005407920107245445,-0.023409364745020863,9.802816390991213,-0.11363217234611513,-0.2301012277603149,-0.07456937432289124,-0.20618999004364014,-0.11831999570131302,0.3520599901676178,1194,1032,1218,1008,0,0,0,8,0,0
3764,0.032906509935855865,-0.11924556642770767,330.2693176269531,-0.005654584150761366,-0.023421067744493484,9.802899360656738,-0.11566269397735594,-0.22975490987300876,-0.07299818098545073,-0.20618999004364014,-0.11831999570131302,0.3520599901676178,1194,1032,1218,1008,0,0,0,8,0,0
3766,0.03227721154689789,-0.1220785230398178,330.26995849609375,-0.005894444417208433,-0.023324577137827877,9.802911758422852,-0.11617550253868104,-0.22941456735134125,-0.07293500751256943,-0.20618999004364014,-0.11831999570131302,0.3520599901676178,1194,1032,1218,1008,0,0,0,8,0,0
3767,0.03215147368609905,-0.123125109821558,330.2703399658203,-0.005945120705291629,-0.02335836924612522,9.80295181274414,-0.11568904295563698,-0.22985034435987473,-0.07511647045612335,-0.20618999004364014,-0.11831999570131302,0.3520599901676178,1235,1066,1258,1042,0,0,0,8,0,0
3768,0.03202573582530022,-0.1241716966032982,330.2707214355469,-0.005995796993374825,-0.02339216135442257,9.80299186706543,-0.11520258337259293,-0.2302861213684082,-0.07729793339967728,-0.20618999004364014,-0.11831999570131302,0.3520599901676178,1235,1066,1258,1042,0,0,0,8,0,0
3770,0.017736168578267097,-0.14994372427463531,330.25006103515625,-0.005962446797639132,-0.02329632826149464,9.803070068359377,-0.1113002672791481,-0.22873057425022125,-0.07419430464506149,-0.20880000293254847,-0.12237999588251115,0.3532199859619141,1235,1066,1258,1042,0,0,0,8,0,0
3772,0.007971204817295073,-0.1664755642414093,330.2318115234375,-0.005600242875516415,-0.023094719275832176,9.803147315979004,-0.11190498620271684,-0.2259958237409592,-0.07410591095685959,-0.20880000293254847,-0.12237999588251115,0.3532199859619141,1235,1066,1258,1042,0,0,0,8,0,0
3774,0.0010385360801592471,-0.17658810317516327,330.2153015136719,-0.005116116721183062,-0.02278974466025829,9.803220748901367,-0.11397189646959305,-0.2245142161846161,-0.0740194097161293,-0.20880000293254847,-0.12237999588251115,0.3532199859619141,1235,1066,1258,1042,0,0,0,8,0,0
3775,-0.001445360423531383,-0.17949996888637543,330.2077331542969,-0.004913697950541973,-0.022667680867016315,9.803223609924316,-0.1127711832523346,-0.22499218583106995,-0.07397706434130669,-0.20880000293254847,-0.12237999588251115,0.3532199859619141,1243,1072,1267,1049,0,0,0,8,0,0
3776,-0.0039292569272220135,-0.1824118345975876,330.2001647949219,-0.0047112791799008855,-0.022545617073774338,9.803226470947266,-0.11157047003507614,-0.2254701554775238,-0.07393471896648407,-0.20880000293254847,-0.12237999588251115,0.3532199859619141,1243,1072,1267,1049,0,0,0,7,0,0
3778,-0.00729991914704442,-0.18578194081783292,330.18603515625,-0.004515467211604118,-0.022630777209997174,9.8031644821167,-0.1077447161078453,-0.22279152274131772,-0.07237688452005386,-0.20880000293254847,-0.12237999588251115,0.3532199859619141,1243,1072,1267,1049,0,0,0,7,0,0
3780,-0.009123184718191624,-0.1876037269830704,330.1727294921875,-0.004654815420508386,-0.022767979651689533,9.803105354309082,-0.10989928245544434,-0.22257110476493835,-0.06937694549560547,-0.20880000293254847,-0.12237999588251115,0.3532199859619141,1243,1072,1267,1049,0,0,0,7,0,0
3782,-0.009962680749595164,-0.1883284002542496,330.16009521484375,-0.004724376834928989,-0.02284809574484825,9.803112030029297,-0.1075837016105652,-0.21994248032569885,-0.06939007341861725,-0.20880000293254847,-0.12237999588251115,0.3532199859619141,1243,1072,1267,1049,0,0,0,7,0,0
3783,-0.010094234719872475,-0.18833536654710772,330.154052734375,-0.004725220846012235,-0.02288726158440113,9.803115367889404,-0.1086626835167408,-0.22045989334583282,-0.07160889357328415,-0.20880000293254847,-0.12237999588251115,0.3532199859619141,1245,1074,1268,1050,0,0,0,7,0,0
3784,-0.010225788690149784,-0.18834233283996585,330.14801025390625,-0.00472606485709548,-0.02292642742395401,9.803118705749512,-0.1097416654229164,-0.2209773063659668,-0.07382771372795105,-0.20880000293254847,-0.12237999588251115,0.3532199859619141,1245,1074,1268,1050,0,0,0,7,0,0
3786,-0.01293393690139055,-0.19190505146980288,330.1326904296875,-0.004463884513825178,-0.02284109592437744,9.803193092346193,-0.11037922650575638,-0.22078824043273929,-0.07079720497131348,-0.20850999653339386,-0.1226699948310852,0.355540007352829,1245,1074,1268,1050,0,0,0,7,0,0
3788,-0.014774871990084646,-0.1934937685728073,330.11822509765625,-0.004208947066217661,-0.022757688537240032,9.803265571594238,-0.10952842980623244,-0.21939633786678314,-0.07373028248548508,-0.20850999653339386,-0.1226699948310852,0.355540007352829,1245,1074,1268,1050,0,0,0,7,0,0
3790,-0.015865648165345192,-0.19370125234127045,330.1044616699219,-0.004092936869710685,-0.02262219786643982,9.80333423614502,-0.11459527164697647,-0.2192344665527344,-0.0721767395734787,-0.20850999653339386,-0.1226699948310852,0.355540007352829,1245,1074,1268,1050,0,0,0,7,0,0
3791,-0.015978769399225712,-0.19338686019182205,330.0978698730469,-0.004168436164036394,-0.022582962177693844,9.80340051651001,-0.11560038477182388,-0.22096397727727893,-0.06994142383337021,-0.20850999653339386,-0.1226699948310852,0.355540007352829,1245,1074,1269,1050,0,0,0,7,0,0
3792,-0.01609189063310623,-0.19307246804237368,330.0912780761719,-0.004243935458362103,-0.02254372648894787,9.803466796875,-0.1166054978966713,-0.22269348800182345,-0.06770610809326172,-0.20850999653339386,-0.1226699948310852,0.355540007352829,1245,1074,1269,1050,0,0,0,7,0,0
3794,-0.015903403982520103,-0.19198879599571228,330.0786437988281,-0.004258867353200913,-0.02252098917961121,9.803529739379883,-0.12152321636676787,-0.22126877307891848,-0.0692293718457222,-0.20850999653339386,-0.1226699948310852,0.355540007352829,1245,1074,1269,1050,0,0,0,7,0,0
3796,-0.015445884317159653,-0.19046232104301453,330.06646728515625,-0.004273387137800455,-0.022390838712453842,9.803592681884766,-0.1204376146197319,-0.2234867364168167,-0.07072053849697113,-0.20850999653339386,-0.1226699948310852,0.355540007352829,1245,1074,1269,1050,0,0,0,7,0,0
3798,-0.01452501770108938,-0.18919295072555545,330.0546875,-0.004485368262976408,-0.022641370072960854,9.803718566894533,-0.123799666762352,-0.2244604229927063,-0.06628057360649109,-0.20850999653339386,-0.1226699948310852,0.355540007352829,1245,1074,1269,1050,0,0,0,7,0,0
3799,-0.013858174439519644,-0.18847136944532394,330.0489959716797,-0.004621413769200444,-0.022628898732364178,9.803779602050783,-0.1232328824698925,-0.22614490240812302,-0.06779469549655914,-0.20850999653339386,-0.1226699948310852,0.355540007352829,1246,1073,1269,1050,0,0,0,7,0,0
3800,-0.013191331177949905,-0.18774978816509247,330.0433044433594,-0.00475745927542448,-0.022616427391767502,9.803840637207033,-0.122666098177433,-0.2278293818235397,-0.0693088173866272,-0.20850999653339386,-0.1226699948310852,0.355540007352829,1246,1073,1269,1050,0,0,0,7,0,0
3802,-0.005720562301576138,-0.1762438267469406,330.0416259765625,-0.005022043827921152,-0.02275395393371582,9.803960800170898,-0.12450623512268065,-0.23114031553268435,-0.06784845143556595,-0.21198999881744385,-0.123539999127388,0.3497399985790253,1246,1073,1269,1050,0,0,0,7,0,0
3804,-0.00015944370534271002,-0.16825737059116366,330.0393371582031,-0.00521338963881135,-0.022834405303001404,9.804078102111816,-0.12335781008005142,-0.2356002181768417,-0.06494393199682236,-0.21198999881744385,-0.123539999127388,0.3497399985790253,1246,1073,1269,1050,0,0,0,7,0,0
3806,0.004081095568835735,-0.16277816891670227,330.03662109375,-0.0053994613699615,-0.02296699769794941,9.804123878479004,-0.12370847165584566,-0.2411893755197525,-0.0621006228029728,-0.21198999881744385,-0.123539999127388,0.3497399985790253,1246,1073,1269,1050,0,0,0,7,0,0
3807,0.005661139730364084,-0.16094035655260086,330.03514099121094,-0.00542397890239954,-0.023058775812387466,9.80414628982544,-0.12388011440634729,-0.24092071503400803,-0.061446381732821465,-0.21198999881744385,-0.123539999127388,0.3497399985790253,1246,1073,1270,1049,0,0,0,7,0,0
3808,0.007241183891892433,-0.15910254418849945,330.0336608886719,-0.00544849643483758,-0.023150553926825523,9.804168701171877,-0.12405175715684892,-0.24065205454826355,-0.060792140662670135,-0.21198999881744385,-0.123539999127388,0.3497399985790253,1246,1073,1270,1049,0,0,0,7,0,0
3810,0.009287886321544649,-0.15681695938110352,330.0306091308594,-0.0052323671989142895,-0.02343790605664253,9.804216384887695,-0.12881259620189667,-0.2425360381603241,-0.05361152067780495,-0.21198999881744385,-0.123539999127388,0.3497399985790253,1246,1073,1270,1049,0,0,0,7,0,0
3812,0.01091611385345459,-0.15533173084259033,330.02752685546875,-0.005286015570163728,-0.023610847070813182,9.80426025390625,-0.12757337093353271,-0.23956343531608584,-0.051006980240345,-0.21198999881744385,-0.123539999127388,0.3497399985790253,1246,1073,1270,1049,0,0,0,7,0,0
3814,0.01216677948832512,-0.15425071120262146,330.0245056152344,-0.005272223614156246,-0.023671964183449745,9.80430507659912,-0.1234104335308075,-0.2330239564180374,-0.04993224889039993,-0.21198999881744385,-0.123539999127388,0.3497399985790253,1246,1073,1270,1049,0,0,0,7,0,0
3815,0.012828306760638952,-0.15378201007843018,330.0229797363281,-0.005397425265982747,-0.023647871799767017,9.80429220199585,-0.12284775078296661,-0.23342864215373993,-0.05309351906180382,-0.21198999881744385,-0.123539999127388,0.3497399985790253,1246,1073,1270,1049,0,0,0,7,0,0
3816,0.013489834032952784,-0.1533133089542389,330.0214538574219,-0.005522626917809248,-0.02362377941608429,9.804279327392578,-0.12228506803512572,-0.23383332788944244,-0.0562547892332077,-0.21198999881744385,-0.123539999127388,0.3497399985790253,1246,1073,1270,1049,0,0,0,7,0,0
3818,0.022496763616800308,-0.13926376402378082,330.0301818847656,-0.005766135174781084,-0.023576682433485985,9.804253578186037,-0.12855805456638336,-0.2358348071575165,-0.06096920743584632,-0.2134400010108948,-0.12296000123023987,0.35582998394966125,1246,1073,1270,1049,0,0,0,7,0,0
3820,0.028807559981942173,-0.130177304148674,330.03765869140625,-0.005936973262578249,-0.023746499791741368,9.80416488647461,-0.13469886779785156,-0.2378017902374268,-0.0626344159245491,-0.2134400010108948,-0.12296000123023987,0.35582998394966125,1246,1073,1270,1049,0,0,0,7,0,0
3822,0.0329204685986042,-0.12454284727573395,330.04425048828125,-0.00583928544074297,-0.02396644651889801,9.804142951965332,-0.13776043057441711,-0.2373228222131729,-0.0657394528388977,-0.2134400010108948,-0.12296000123023987,0.35582998394966125,1246,1073,1270,1049,0,0,0,7,0,0
3823,0.03417371027171612,-0.12267390266060829,330.04722595214844,-0.00575881265103817,-0.023912057280540466,9.80413293838501,-0.13704656809568405,-0.23648446798324585,-0.06947166845202446,-0.2134400010108948,-0.12296000123023987,0.35582998394966125,1246,1073,1270,1049,0,0,0,7,0,0
3824,0.03542695194482803,-0.12080495804548265,330.0502014160156,-0.00567833986133337,-0.02385766804218292,9.804122924804688,-0.136332705616951,-0.2356461137533188,-0.07320388406515121,-0.2134400010108948,-0.12296000123023987,0.35582998394966125,1246,1073,1270,1049,0,0,0,8,0,0
3826,0.03681565821170807,-0.1184207648038864,330.0556945800781,-0.005521828308701515,-0.023805296048522,9.804171562194824,-0.13788491487503052,-0.2339982390403748,-0.07608624547719955,-0.2134400010108948,-0.12296000123023987,0.35582998394966125,1246,1073,1270,1049,0,0,0,8,0,0
3828,0.037712443619966514,-0.1170937642455101,330.060791015625,-0.005567488726228476,-0.023862032219767567,9.804217338562012,-0.1379295289516449,-0.2275546491146088,-0.07890784740447998,-0.2134400010108948,-0.12296000123023987,0.35582998394966125,1246,1073,1270,1049,0,0,0,8,0,0
3830,0.03845430538058281,-0.1162036880850792,330.0655822753906,-0.005743790417909622,-0.02370163984596729,9.804261207580566,-0.1423979252576828,-0.22363413870334625,-0.08167002350091934,-0.2134400010108948,-0.12296000123023987,0.35582998394966125,1246,1073,1270,1049,0,0,0,8,0,0
3831,0.03872803971171379,-0.11604483425617218,330.06785583496094,-0.00579654099419713,-0.023731174878776073,9.80428171157837,-0.14016027748584747,-0.22351671010255814,-0.08375946804881096,-0.2134400010108948,-0.12296000123023987,0.35582998394966125,1246,1073,1271,1048,0,0,0,8,0,0
3832,0.039001774042844765,-0.11588598042726515,330.07012939453125,-0.005849291570484638,-0.023760709911584854,9.804302215576172,-0.13792262971401215,-0.22339928150177,-0.08584891259670258,-0.2134400010108948,-0.12296000123023987,0.35582998394966125,1246,1073,1271,1048,0,0,0,8,0,0
3834,0.04174727946519852,-0.1118876188993454,330.0778503417969,-0.006017844658344984,-0.0236565601080656,9.804143905639648,-0.13944131135940552,-0.22558048367500305,-0.08404003828763963,-0.209089994430542,-0.120059996843338,0.35582998394966125,1246,1073,1271,1048,0,0,0,8,0,0
3836,0.043580256402492516,-0.10937345772981644,330.0849914550781,-0.006115785334259272,-0.023554777726531032,9.804123878479004,-0.13650326430797574,-0.2277241945266724,-0.08226929605007173,-0.209089994430542,-0.120059996843338,0.35582998394966125,1246,1073,1271,1048,0,0,0,8,0,0
3838,0.044521689414978034,-0.10792247205972673,330.0916748046875,-0.006013170350342989,-0.02350923977792263,9.804168701171877,-0.13362710177898407,-0.22741885483264926,-0.07758599519729614,-0.209089994430542,-0.120059996843338,0.35582998394966125,1246,1073,1271,1048,0,0,0,8,0,0
3839,0.04468587599694729,-0.10766120627522469,330.0948486328125,-0.005963272647932172,-0.023567927069962025,9.80415964126587,-0.13295678794384003,-0.22907785326242447,-0.07750608399510384,-0.209089994430542,-0.120059996843338,0.35582998394966125,1247,1072,1271,1048,0,0,0,8,0,0
3840,0.04485006257891655,-0.10739994049072266,330.0980224609375,-0.005913374945521355,-0.02362661436200142,9.804150581359863,-0.13228647410869598,-0.2307368516921997,-0.07742617279291153,-0.209089994430542,-0.120059996843338,0.35582998394966125,1247,1072,1271,1048,0,0,0,8,0,0
3842,0.04505244642496109,-0.10772264748811723,330.1040954589844,-0.0060141999274492255,-0.023903224617242813,9.80419635772705,-0.13244901597499847,-0.2327916622161865,-0.0757947713136673,-0.209089994430542,-0.120059996843338,0.35582998394966125,1247,1072,1271,1048,0,0,0,8,0,0
3844,0.04536716267466545,-0.10825311392545699,330.1098937988281,-0.006244149524718523,-0.02390378527343273,9.80417537689209,-0.13850784301757812,-0.2372231036424637,-0.07714761793613434,-0.209089994430542,-0.120059996843338,0.35582998394966125,1247,1072,1271,1048,0,0,0,8,0,0
3846,0.04586505889892578,-0.10869364440441133,330.115478515625,-0.006533719133585692,-0.023742450401186943,9.804154396057127,-0.1414891481399536,-0.23796014487743375,-0.07699701189994812,-0.209089994430542,-0.120059996843338,0.35582998394966125,1247,1072,1271,1048,0,0,0,8,0,0
3847,0.046223852783441544,-0.10900021716952324,330.1181640625,-0.006707488559186459,-0.023744545876979828,9.804177284240723,-0.1458982452750206,-0.2395283356308937,-0.07618583366274834,-0.209089994430542,-0.120059996843338,0.35582998394966125,1247,1072,1271,1048,0,0,0,8,0,0
3848,0.046582646667957306,-0.10930678993463516,330.120849609375,-0.006881257984787226,-0.023746641352772716,9.804200172424316,-0.1503073424100876,-0.24109652638435364,-0.07537465542554855,-0.209089994430542,-0.120059996843338,0.35582998394966125,1247,1072,1271,1048,0,0,0,8,0,0
3850,0.050846382975578315,-0.10419122129678726,330.13140869140625,-0.00715327262878418,-0.02402055449783802,9.80431079864502,-0.1530400663614273,-0.2417668849229813,-0.08116111159324646,-0.21024999022483826,-0.120059996843338,0.34828999638557434,1247,1072,1271,1048,0,0,0,8,0,0
3852,0.05351639539003372,-0.10100585967302322,330.1412048339844,-0.007088013458997011,-0.02391054667532444,9.80435276031494,-0.15719009935855865,-0.2424256205558777,-0.0912504568696022,-0.21024999022483826,-0.120059996843338,0.34828999638557434,1247,1072,1271,1048,0,0,0,8,0,0
3854,0.05508179590106009,-0.09933053702116013,330.1503601074219,-0.007024560123682022,-0.023964913561940197,9.804390907287598,-0.15830281376838684,-0.2406609207391739,-0.09670241177082063,-0.21024999022483826,-0.120059996843338,0.34828999638557434,1247,1072,1271,1048,0,0,0,8,0,0
3855,0.0553434882313013,-0.09895963966846466,330.1547088623047,-0.006894776131957769,-0.023964495398104194,9.804410457611084,-0.15737254172563553,-0.24160286039113998,-0.0978960394859314,-0.21024999022483826,-0.120059996843338,0.34828999638557434,1247,1072,1272,1047,0,0,0,8,0,0
3856,0.05560518056154251,-0.0985887423157692,330.1590576171875,-0.0067649921402335176,-0.023964077234268192,9.80443000793457,-0.15644226968288422,-0.2425448000431061,-0.09908966720104218,-0.21024999022483826,-0.120059996843338,0.34828999638557434,1247,1072,1272,1047,0,0,0,8,0,0
3858,0.05567018687725067,-0.0986015647649765,330.16729736328125,-0.0067104361951351174,-0.02407119981944561,9.804468154907227,-0.1501961499452591,-0.24560214579105374,-0.09847676753997804,-0.21024999022483826,-0.120059996843338,0.34828999638557434,1247,1072,1272,1047,0,0,0,8,0,0
3860,0.05533934757113457,-0.09913763403892516,330.1752624511719,-0.006591426208615303,-0.02417590282857418,9.804439544677734,-0.15588100254535675,-0.2474008649587631,-0.09787674993276596,-0.21024999022483826,-0.120059996843338,0.34828999638557434,1247,1072,1272,1047,0,0,0,8,0,0
3862,0.05464817956089973,-0.09986314922571182,330.1829528808594,-0.0064097517170012,-0.024170318618416783,9.804409980773926,-0.15702129900455475,-0.2491686195135117,-0.094339556992054,-0.21024999022483826,-0.120059996843338,0.34828999638557434,1247,1072,1272,1047,0,0,0,8,0,0
3863,0.05426699481904507,-0.10028580576181412,330.18666076660156,-0.0063873715698719025,-0.024167591705918312,9.80439567565918,-0.15905436128377914,-0.25064028054475784,-0.09482059627771378,-0.21024999022483826,-0.120059996843338,0.34828999638557434,1247,1072,1272,1047,0,0,0,8,0,0
3864,0.0538858100771904,-0.1007084622979164,330.19036865234375,-0.006364991422742604,-0.02416486479341984,9.804381370544434,-0.16108742356300354,-0.25211194157600403,-0.09530163556337357,-0.21024999022483826,-0.120059996843338,0.34828999638557434,1247,1072,1272,1047,0,0,0,8,0,0
3866,0.030627042055130005,-0.13951046764850614,330.16351318359375,-0.006123601458966732,-0.023835759609937668,9.804354667663574,-0.16211803257465365,-0.2550045251846313,-0.0918186530470848,-0.2082199901342392,-0.12296000123023987,0.3488700091838837,1247,1072,1272,1047,0,0,0,8,0,0
3868,0.015045044012367725,-0.16486941277980804,330.14013671875,-0.006020770873874426,-0.023621998727321625,9.804197311401367,-0.16460183262825012,-0.2542291879653931,-0.09283383935689926,-0.2082199901342392,-0.12296000123023987,0.3488700091838837,1247,1072,1272,1047,0,0,0,8,0,0
3870,0.0048668445087969294,-0.18122050166130066,330.11932373046875,-0.006052679382264614,-0.023520980030298237,9.80410861968994,-0.16555838286876678,-0.2534672319889069,-0.09087780863046646,-0.2082199901342392,-0.12296000123023987,0.3488700091838837,1247,1072,1272,1047,0,0,0,8,0,0
3871,0.0016684465808793898,-0.18637770414352417,330.1098327636719,-0.0061011717189103365,-0.02349858917295933,9.803934097290039,-0.16823899745941162,-0.25128377974033356,-0.08992039412260056,-0.2082199901342392,-0.12296000123023987,0.3488700091838837,1248,1071,1272,1047,0,0,0,8,0,0
3872,-0.0015299513470381498,-0.19153490662574768,330.100341796875,-0.00614966405555606,-0.023476198315620426,9.803759574890137,-0.17091961205005646,-0.24910032749176025,-0.08896297961473465,-0.2082199901342392,-0.12296000123023987,0.3488700091838837,1248,1071,1272,1047,0,0,0,7,0,0
3874,-0.0050685713067650795,-0.1977607905864716,330.0827941894531,-0.006441835314035416,-0.023432429879903797,9.803421020507812,-0.17469289898872375,-0.2423965334892273,-0.09003835171461105,-0.2082199901342392,-0.12296000123023987,0.3488700091838837,1248,1071,1272,1047,0,0,0,7,0,0
3876,-0.006754428613930941,-0.20137447118759155,330.06634521484375,-0.006660003215074539,-0.023497583344578743,9.803023338317873,-0.17691178619861606,-0.24425043165683746,-0.08814122527837752,-0.2082199901342392,-0.12296000123023987,0.3488700091838837,1248,1071,1272,1047,0,0,0,7,0,0
3878,-0.0072746118530631065,-0.20316030085086825,330.0507507324219,-0.006806204095482825,-0.023507285863161087,9.802571296691896,-0.17908388376235962,-0.24969056248664856,-0.08628407120704651,-0.2082199901342392,-0.12296000123023987,0.3488700091838837,1248,1071,1272,1047,0,0,0,7,0,0
3879,-0.0071848679799586535,-0.20343977957963943,330.0433349609375,-0.006844310322776436,-0.023512030951678753,9.80251693725586,-0.18014705181121826,-0.2505546659231186,-0.0883249081671238,-0.2082199901342392,-0.12296000123023987,0.3488700091838837,1248,1071,1272,1047,0,0,0,7,0,0
3880,-0.0070951241068542,-0.20371925830841064,330.0359191894531,-0.0068824165500700465,-0.02351677604019642,9.802462577819824,-0.1812102198600769,-0.2514187693595886,-0.09036574512720108,-0.2082199901342392,-0.12296000123023987,0.3488700091838837,1248,1071,1272,1047,0,0,0,7,0,0
3882,0.00040764198638498783,-0.19239847362041476,330.03118896484375,-0.007220348808914424,-0.02352606132626533,9.80242156982422,-0.18771657347679135,-0.2519111931324005,-0.09288648515939713,-0.20763999223709104,-0.12150999903678895,0.3561199903488159,1248,1071,1272,1047,0,0,0,7,0,0
3884,0.005993061233311892,-0.1844123750925064,330.02593994140625,-0.007417056243866681,-0.023481164127588272,9.802515029907227,-0.1881861537694931,-0.2511892020702362,-0.09240426123142242,-0.20763999223709104,-0.12150999903678895,0.3561199903488159,1248,1071,1272,1047,0,0,0,7,0,0
3886,0.010368800722062588,-0.17868074774742124,330.0203552246094,-0.007674297783523799,-0.023437287658452988,9.802604675292967,-0.1871708333492279,-0.2504795789718628,-0.08898235112428665,-0.20763999223709104,-0.12150999903678895,0.3561199903488159,1248,1071,1272,1047,0,0,0,7,0,0
3887,0.012142649851739407,-0.1765751540660858,330.0174865722656,-0.007799372309818864,-0.023415847681462765,9.802616119384766,-0.18372402340173719,-0.2513369172811508,-0.0880449041724205,-0.20763999223709104,-0.12150999903678895,0.3561199903488159,1248,1071,1272,1047,0,0,0,7,0,0
3888,0.013916498981416224,-0.17446956038475034,330.0146179199219,-0.00792444683611393,-0.023394407704472545,9.802627563476562,-0.18027721345424647,-0.25219425559043884,-0.08710745722055435,-0.20763999223709104,-0.12150999903678895,0.3561199903488159,1248,1071,1272,1047,0,0,0,8,0,0
3890,0.014108249917626381,-0.17223115265369415,330.00885009765625,-0.0061890934593975535,-0.024053985252976414,9.800143241882324,-0.1705789715051651,-0.2490551918745041,-0.1044461354613304,-0.20763999223709104,-0.12150999903678895,0.3561199903488159,1248,1071,1272,1047,0,0,0,8,0,0
3892,0.010344027541577816,-0.1694909632205963,330.003173828125,-0.003380363341420889,-0.023457560688257214,9.799508094787598,-0.16403493285179138,-0.23873406648635864,-0.14059355854988098,-0.20763999223709104,-0.12150999903678895,0.3561199903488159,1248,1071,1272,1047,0,0,0,8,0,0
3894,0.006116051692515612,-0.16665923595428467,329.99761962890625,-0.002297886647284031,-0.023090442642569545,9.796449661254883,-0.16352850198745728,-0.2261786907911301,-0.1804041564464569,-0.20763999223709104,-0.12150999903678895,0.3561199903488159,1248,1071,1272,1047,0,0,0,8,0,0
3895,0.008057120954617858,-0.1645215004682541,329.994873046875,-0.004739472875371575,-0.02237139828503132,9.795126914978027,-0.16033077239990234,-0.22242126613855365,-0.18809061497449875,-0.20763999223709104,-0.12150999903678895,0.3561199903488159,1248,1071,1273,1046,0,0,0,8,0,0
3896,0.009998190216720104,-0.1623837649822235,329.99212646484375,-0.007181059103459121,-0.021652353927493092,9.793804168701172,-0.1571330428123474,-0.2186638414859772,-0.1957770735025406,-0.20763999223709104,-0.12150999903678895,0.3561199903488159,1248,1071,1273,1046,0,0,0,7,0,0
3898,-0.2036268562078476,-0.4832102656364441,329.5914001464844,-0.014897533692419529,-0.020462553948163983,9.795520782470703,-0.1538221836090088,-0.2161024808883667,-0.1695280820131302,-0.20502999424934387,-0.16703999042510986,0.2836199998855591,1248,1071,1273,1046,0,0,0,7,0,0
3900,-0.3508699834346771,-0.7144739627838135,329.2249755859375,-0.022335369139909744,-0.017788641154766083,9.79837703704834,-0.15795575082302096,-0.22323358058929446,-0.09515954554080963,-0.20502999424934387,-0.16703999042510986,0.2836199998855591,1248,1071,1273,1046,0,0,0,7,0,0
3902,-0.4492441117763519,-0.8765432238578796,328.88671875,-0.02785342186689377,-0.014743334613740444,9.796733856201172,-0.16642703115940094,-0.22179961204528809,0.004190765321254729,-0.20502999424934387,-0.16703999042510986,0.2836199998855591,1248,1071,1273,1046,0,0,0,7,0,0
3903,-0.4846235364675522,-0.9315178394317627,328.72938537597656,-0.02621644362807274,-0.013524821028113365,9.797122955322266,-0.16983593255281448,-0.22591907531023026,0.05134432390332223,-0.20502999424934387,-0.16703999042510986,0.2836199998855591,1249,1070,1273,1046,0,0,0,7,0,0
3904,-0.5200029611587524,-0.9864924550056458,328.5720520019531,-0.02457946538925171,-0.012306307442486286,9.79751205444336,-0.17324483394622806,-0.2300385385751724,0.09849788248538972,-0.20502999424934387,-0.16703999042510986,0.2836199998855591,1249,1070,1273,1046,0,0,0,6,2,0
3906,-0.5715319514274597,-1.0588289499282837,328.2773742675781,-0.020142631605267525,-0.011705014854669573,9.799654006958008,-0.17844411730766296,-0.2260752469301224,0.1627943217754364,-0.20502999424934387,-0.16703999042510986,0.2836199998855591,1249,1070,1273,1046,0,0,0,6,2,0
3908,-0.6163996458053589,-1.103967308998108,327.9999694824219,-0.008771075867116451,-0.012304432690143585,9.801273345947266,-0.1732092946767807,-0.2354465574026108,0.14461490511894226,-0.20502999424934387,-0.16703999042510986,0.2836199998855591,1249,1070,1273,1046,0,0,0,6,2,0
3910,-0.6566849946975708,-1.1299430131912231,327.73785400390625,0.0024189595133066177,-0.014185440726578237,9.801004409790039,-0.17103467881679535,-0.2422443479299545,0.06487153470516205,-0.20502999424934387,-0.16703999042510986,0.2836199998855591,1249,1070,1273,1046,0,0,0,6,2,0
3911,-0.673674613237381,-1.1363205909729004,327.61358642578125,0.006441759876906872,-0.01564435986801982,9.799420833587646,-0.1648080050945282,-0.24136357009410858,0.004453502595424652,-0.20502999424934387,-0.16703999042510986,0.2836199998855591,1250,1069,1270,1049,0,0,0,6,2,0
3912,-0.6906642317771912,-1.1426981687545776,327.48931884765625,0.010464560240507126,-0.017103279009461403,9.797837257385254,-0.15858133137226105,-0.24048279225826266,-0.05596452951431274,-0.20502999424934387,-0.16703999042510986,0.2836199998855591,1250,1069,1270,1049,0,0,0,6,2,0
3914,-1.6299017667770386,-1.0437369346618652,326.7549133300781,0.009648497216403484,-0.019631534814834598,9.796737670898438,-0.1463904082775116,-0.24960586428642276,-0.1727796196937561,0.38134998083114624,-0.19139999151229856,0.2691200077533722,1250,1069,1270,1049,0,0,0,6,2,0
3916,-2.5607893466949463,-0.9428463578224182,326.0061950683594,0.0029850727878510948,-0.021563151851296425,9.796524047851562,-0.13740621507167816,-0.240481361746788,-0.2428855299949646,0.38134998083114624,-0.19139999151229856,0.2691200077533722,1250,1069,1270,1049,0,0,0,6,2,0
3918,-3.4798600673675537,-0.8392068147659302,325.23858642578125,-0.009826228953897951,-0.021130826324224472,9.794275283813477,-0.13008621335029602,-0.2363381236791611,-0.237767830491066,0.38134998083114624,-0.19139999151229856,0.2691200077533722,1250,1069,1270,1049,0,0,0,6,2,0
3919,-3.932716727256775,-0.7858481109142303,324.8450927734375,-0.01552769215777516,-0.020352940075099468,9.79443359375,-0.13240303844213486,-0.2306841015815735,-0.20355195552110672,0.38134998083114624,-0.19139999151229856,0.2691200077533722,1250,1069,1270,1049,0,0,0,6,2,0
3920,-4.385573387145996,-0.7324894070625305,324.45159912109375,-0.02122915536165237,-0.01957505382597446,9.794591903686523,-0.1347198635339737,-0.2250300794839859,-0.16933608055114746,0.38134998083114624,-0.19139999151229856,0.2691200077533722,1250,1069,1270,1049,0,0,0,6,2,0
3922,-5.277234554290772,-0.6224691271781921,323.6441345214844,-0.029679633677005768,-0.017568692564964294,9.793120384216307,-0.1407308429479599,-0.22356516122817996,-0.08022226393222809,0.38134998083114624,-0.19139999151229856,0.2691200077533722,1250,1069,1270,1049,0,0,0,6,2,0
3924,-6.15300178527832,-0.5093903541564941,322.816162109375,-0.034995239228010185,-0.016147203743457794,9.792744636535645,-0.16431429982185364,-0.2124771922826767,0.017338402569293976,0.38134998083114624,-0.19139999151229856,0.2691200077533722,1250,1069,1270,1049,0,0,0,6,2,0
3926,-7.013050079345702,-0.3935151696205139,321.9676513671875,-0.030403226613998413,-0.015459282323718073,9.793105125427246,-0.1815011203289032,-0.206404373049736,0.08481977880001068,0.38134998083114624,-0.19139999151229856,0.2691200077533722,1250,1069,1270,1049,0,0,0,6,2,0
3927,-7.434466123580933,-0.3343408405780792,321.53297424316406,-0.026719526387751102,-0.015581759624183178,9.793280601501465,-0.1921258568763733,-0.20884744822978973,0.08908845111727715,0.38134998083114624,-0.19139999151229856,0.2691200077533722,1242,1077,1262,1057,0,0,0,6,2,0
3928,-7.855882167816162,-0.2751665115356445,321.0982971191406,-0.023035826161503792,-0.015704236924648285,9.793456077575684,-0.20275059342384336,-0.21129052340984344,0.0933571234345436,0.38134998083114624,-0.19139999151229856,0.2691200077533722,1242,1077,1262,1057,0,0,0,6,2,0
3930,-8.645052909851074,-0.29098182916641235,320.04638671875,-0.01244192011654377,-0.017292723059654236,9.793794631958008,-0.20880308747291565,-0.2088562399148941,0.0604165717959404,0.3369799852371216,-0.26534998416900635,0.26795998215675354,1242,1077,1262,1057,0,0,0,6,2,0
3932,-9.406676292419434,-0.2990922927856445,318.9714050292969,-0.005701502785086632,-0.018035952001810074,9.797224044799805,-0.20735341310501101,-0.22576043009758,0.008996009826660156,0.3369799852371216,-0.26534998416900635,0.26795998215675354,1242,1077,1262,1057,0,0,0,6,2,0
3934,-10.137408256530762,-0.2992240190505981,317.8726806640625,-0.0015211920253932474,-0.018816377967596054,9.799110412597656,-0.18823517858982086,-0.23151907324790955,-0.029541675001382824,0.3369799852371216,-0.26534998416900635,0.26795998215675354,1242,1077,1262,1057,0,0,0,6,2,0
3935,-10.484958171844482,-0.29468171298503876,317.3110809326172,-0.00272036693058908,-0.0179296787828207,9.799138069152832,-0.17519014328718185,-0.23314272612333298,-0.030705373734235764,0.3369799852371216,-0.26534998416900635,0.26795998215675354,1231,1088,1255,1064,0,0,0,6,2,0
3936,-10.832508087158203,-0.29013940691947937,316.7494812011719,-0.003919541835784912,-0.01704297959804535,9.799165725708008,-0.16214510798454285,-0.2347663789987564,-0.0318690724670887,0.3369799852371216,-0.26534998416900635,0.26795998215675354,1231,1088,1255,1064,0,0,0,6,2,0
3938,-11.489173889160154,-0.27160698175430303,315.6015319824219,-0.007438948843628169,-0.015255609527230263,9.800338745117188,-0.1380796581506729,-0.24640002846717834,-0.02382292971014976,0.3369799852371216,-0.26534998416900635,0.26795998215675354,1231,1088,1255,1064,0,0,0,6,2,0
3940,-12.105432510375975,-0.2435051649808884,314.4289855957031,-0.010135862976312636,-0.013562515377998352,9.798973083496094,-0.1218959018588066,-0.24939095973968506,0.006177589297294618,0.3369799852371216,-0.26534998416900635,0.26795998215675354,1231,1088,1255,1064,0,0,0,6,2,0
3942,-12.679034233093262,-0.20605775713920596,313.2321472167969,-0.013220110908150671,-0.012663071043789387,9.79797649383545,-0.11195287108421326,-0.24630023539066315,0.02522149309515953,0.3369799852371216,-0.26534998416900635,0.26795998215675354,1231,1088,1255,1064,0,0,0,6,2,0
3943,-12.944606304168701,-0.18298501521348953,312.6220397949219,-0.012411358766257761,-0.013005943037569523,9.797523021697998,-0.10929850488901138,-0.24357548356056213,0.022743389010429382,0.3369799852371216,-0.26534998416900635,0.26795998215675354,1224,1095,1247,1072,0,0,0,6,2,0
3944,-13.21017837524414,-0.15991227328777313,312.0119323730469,-0.011602606624364851,-0.013348815031349659,9.797069549560547,-0.10664413869380952,-0.2408507317304611,0.020265284925699237,0.3369799852371216,-0.26534998416900635,0.26795998215675354,1224,1095,1247,1072,0,0,0,6,2,0
3946,-13.781981468200685,-0.002010736148804426,310.86187744140625,-0.010491358116269112,-0.01601570844650269,9.795395851135254,-0.12947088479995728,-0.2415253072977066,-0.017034921795129776,0.3288599848747253,-0.20096999406814572,0.2522999942302704,1224,1095,1247,1072,0,0,0,6,2,0
3948,-14.307198524475098,0.1547248512506485,309.6904296875,-0.008091678842902184,-0.020241327583789825,9.794034004211426,-0.14444203674793246,-0.2361581027507782,-0.08894747495651245,0.3288599848747253,-0.20096999406814572,0.2522999942302704,1224,1095,1247,1072,0,0,0,6,2,0
3950,-14.78216552734375,0.3098700940608978,308.49896240234375,-0.012221578508615494,-0.02512713149189949,9.79251194000244,-0.15762276947498322,-0.2284712642431259,-0.12394654005765915,0.3288599848747253,-0.20096999406814572,0.2522999942302704,1224,1095,1247,1072,0,0,0,6,2,0
3951,-14.993487358093262,0.3877978026866913,307.89341735839844,-0.016537981107831,-0.025194554589688778,9.794377326965332,-0.154487244784832,-0.22469408810138702,-0.10420415177941322,0.3288599848747253,-0.20096999406814572,0.2522999942302704,1217,1102,1240,1079,0,0,0,6,2,0
3952,-15.204809188842773,0.4657255113124848,307.2878723144531,-0.02085438370704651,-0.025261977687478062,9.796242713928224,-0.1513517200946808,-0.22091691195964813,-0.0844617635011673,0.3288599848747253,-0.20096999406814572,0.2522999942302704,1217,1102,1240,1079,0,0,0,6,2,0
3954,-15.575448989868164,0.6235237717628479,306.05810546875,-0.029513061046600345,-0.02264170348644257,9.799408912658693,-0.13931311666965485,-0.2110806405544281,-0.010410629212856293,0.3288599848747253,-0.20096999406814572,0.2522999942302704,1217,1102,1240,1079,0,0,0,6,2,0
3956,-15.897490501403807,0.7821255922317505,304.8108825683594,-0.032854661345481866,-0.02191525138914585,9.799781799316406,-0.13047800958156586,-0.20864996314048767,0.10042835026979446,0.3288599848747253,-0.20096999406814572,0.2522999942302704,1217,1102,1240,1079,0,0,0,6,2,0
3958,-16.178142547607422,0.9426111578941344,303.5464172363281,-0.0237049013376236,-0.019046679139137268,9.80053997039795,-0.114454448223114,-0.2098793387413025,0.1292857974767685,0.3288599848747253,-0.20096999406814572,0.2522999942302704,1217,1102,1240,1079,0,0,0,6,2,0
3959,-16.29996109008789,1.0227476060390472,302.90586853027344,-0.015892491210252047,-0.019452477805316448,9.799952030181885,-0.12062329798936844,-0.2086743488907814,0.0814635157585144,0.3288599848747253,-0.20096999406814572,0.2522999942302704,1209,1110,1236,1083,0,0,0,6,2,0
3960,-16.42177963256836,1.10288405418396,302.26531982421875,-0.008080081082880497,-0.019858276471495632,9.79936408996582,-0.12679214775562286,-0.20746935904026031,0.03364123404026032,0.3288599848747253,-0.20096999406814572,0.2522999942302704,1209,1110,1236,1083,0,0,0,6,2,0
3962,-16.779705047607422,1.6771858930587769,301.2366638183594,0.007971467450261116,-0.0242670513689518,9.7940673828125,-0.1373949497938156,-0.2075130045413971,-0.14995869994163513,0.4909699857234955,-0.06031999737024307,0.2775299847126007,1209,1110,1236,1083,0,0,0,6,2,0
3964,-17.107421875,2.2270727157592773,300.19171142578125,0.009994173422455788,-0.023234128952026367,9.793335914611816,-0.13744983077049255,-0.20996788144111636,-0.3090411126613617,0.4909699857234955,-0.06031999737024307,0.2775299847126007,1209,1110,1236,1083,0,0,0,6,2,0
3966,-17.399091720581055,2.752062559127808,299.13238525390625,-0.002944364212453365,-0.02217053435742855,9.789590835571287,-0.12422922998666765,-0.2087624669075012,-0.3482523262500763,0.4909699857234955,-0.06031999737024307,0.2775299847126007,1209,1110,1236,1083,0,0,0,6,2,0
3967,-17.524730682373047,3.002620577812195,298.5963439941406,-0.015237088780850174,-0.01981601119041443,9.788198471069336,-0.122920460999012,-0.20575805008411407,-0.2745243236422539,0.4909699857234955,-0.06031999737024307,0.2775299847126007,1204,1115,1233,1086,0,0,0,6,2,0
3968,-17.65036964416504,3.253178596496582,298.060302734375,-0.027529813349246982,-0.01746148802340031,9.786806106567383,-0.12161169201135635,-0.20275363326072693,-0.20079632103443146,0.4909699857234955,-0.06031999737024307,0.2775299847126007,1204,1115,1233,1086,0,0,0,6,2,0
3970,-17.86202621459961,3.730500459671021,296.9768981933594,-0.05196523293852806,-0.012696748599410057,9.784890174865724,-0.07480145990848541,-0.19564229249954224,0.024673745036125183,0.4909699857234955,-0.06031999737024307,0.2775299847126007,1204,1115,1233,1086,0,0,0,6,2,0
3972,-18.03939247131348,4.184868335723877,295.8827819824219,-0.0654384046792984,-0.006852294318377972,9.777684211730957,-0.0393020398914814,-0.20312587916851044,0.3147147595882416,0.4909699857234955,-0.06031999737024307,0.2775299847126007,1204,1115,1233,1086,0,0,0,6,2,0
3974,-18.187095642089844,4.614988327026367,294.7788391113281,-0.06996627151966095,-0.0055105993524193755,9.783208847045898,-0.03109930083155632,-0.1875659227371216,0.566196084022522,0.4909699857234955,-0.06031999737024307,0.2775299847126007,1204,1115,1233,1086,0,0,0,6,2,0
3975,-18.25101089477539,4.819354057312012,294.2213439941406,-0.06131845712661743,-0.0029122296255081888,9.781079292297363,-0.04478348046541214,-0.20584967732429504,0.6243904829025269,0.4909699857234955,-0.06031999737024307,0.2775299847126007,1195,1124,1234,1085,0,0,0,6,2,0
3976,-18.314926147460934,5.023719787597656,293.6638488769531,-0.05267064273357392,-0.00031385989859700203,9.778949737548828,-0.05846766009926796,-0.2241334319114685,0.6825848817825317,0.4909699857234955,-0.06031999737024307,0.2775299847126007,1195,1124,1234,1085,0,0,0,6,2,0
3978,-17.971403121948242,4.734472274780273,292.33721923828125,-0.03492838144302368,-0.005810948554426432,9.771445274353027,-0.07051008194684982,-0.2106236070394516,0.649028480052948,0.4242700040340424,-0.3648200035095215,0.3172599971294403,1195,1124,1234,1085,0,0,0,6,2,0
3980,-17.638944625854492,4.480179786682129,290.97332763671875,-0.006463047116994858,-0.00853990763425827,9.758606910705566,-0.017401915043592453,-0.18649224936962128,0.43771275877952576,0.4242700040340424,-0.3648200035095215,0.3172599971294403,1195,1124,1234,1085,0,0,0,6,2,0
3982,-17.308956146240234,4.254033088684082,289.5766906738281,0.0070376982912421235,-0.02005714736878872,9.750475883483887,0.012463288381695749,-0.1651887148618698,0.1571033000946045,0.4242700040340424,-0.3648200035095215,0.3172599971294403,1195,1124,1234,1085,0,0,0,6,2,0
3983,-17.14256477355957,4.155426263809204,288.8627471923828,0.009644804988056421,-0.023581369780004025,9.744510650634766,0.032980973832309246,-0.14929332584142685,0.015330016613006592,0.4242700040340424,-0.3648200035095215,0.3172599971294403,1187,1132,1235,1084,0,0,0,6,2,0
3984,-16.976173400878903,4.056819438934326,288.1488037109375,0.01225191168487072,-0.02710559219121933,9.738545417785645,0.053498659282922745,-0.1333979368209839,-0.1264432668685913,0.4242700040340424,-0.3648200035095215,0.3172599971294403,1187,1132,1235,1084,0,0,0,6,2,0
3986,-16.640985488891598,3.887088060379028,286.690185546875,0.019564813002943996,-0.032592065632343285,9.728065490722656,0.047946646809577935,-0.1479840874671936,-0.3700920939445496,0.4242700040340424,-0.3648200035095215,0.3172599971294403,1187,1132,1235,1084,0,0,0,6,2,0
3988,-16.287897109985348,3.741888523101807,285.2060546875,-0.000364767387509346,-0.03973555937409401,9.725659370422363,0.07053524255752562,-0.0959872156381607,-0.5510849952697754,0.4242700040340424,-0.3648200035095215,0.3172599971294403,1187,1132,1235,1084,0,0,0,6,2,0
3990,-15.919564247131348,3.6214213371276855,283.69573974609375,-0.015655919909477234,-0.042508888989686966,9.719557762145996,0.06167441979050636,-0.08227314800024033,-0.6058453321456909,0.4242700040340424,-0.3648200035095215,0.3172599971294403,1187,1132,1235,1084,0,0,0,6,2,0
3991,-15.724997997283936,3.5729968547821045,282.92848205566406,-0.02823513373732567,-0.04275806061923504,9.722527503967285,0.024888938292860985,-0.07915235310792923,-0.5751263797283173,0.4242700040340424,-0.3648200035095215,0.3172599971294403,1189,1130,1235,1084,0,0,0,6,2,0
3992,-15.530431747436525,3.5245723724365234,282.1612243652344,-0.0408143475651741,-0.04300723224878311,9.725497245788574,-0.011896543204784392,-0.07603155821561812,-0.5444074273109436,0.4242700040340424,-0.3648200035095215,0.3172599971294403,1189,1130,1235,1084,0,0,0,6,2,0
3994,-15.388193130493164,3.6720471382141113,280.68057250976557,-0.058420166373252876,-0.03993282467126846,9.728766441345217,-0.07506777346134186,-0.09281209856271744,-0.3751192986965179,0.4860399961471558,-0.2714399993419647,0.2682499885559082,1189,1130,1235,1084,0,0,0,6,2,0
3996,-15.216636657714846,3.816136121749878,279.18630981445307,-0.07244092226028442,-0.035632625222206116,9.727856636047363,-0.06316157430410385,-0.06829843670129776,-0.15482573211193085,0.4860399961471558,-0.2714399993419647,0.2682499885559082,1189,1130,1235,1084,0,0,0,6,2,0
3998,-15.027283668518065,3.9599072933197017,277.67578125,-0.06450843065977098,-0.02473808266222477,9.73066520690918,-0.09575408697128296,-0.07435791939496994,0.06525099277496338,0.4860399961471558,-0.2714399993419647,0.2682499885559082,1189,1130,1235,1084,0,0,0,6,2,0
3999,-14.923489570617676,4.029619097709655,276.9128875732422,-0.06147592142224313,-0.022300644777715206,9.7332181930542,-0.1286686509847641,-0.08276259526610374,0.17739556729793549,0.4860399961471558,-0.2714399993419647,0.2682499885559082,1192,1127,1236,1083,0,0,0,6,2,0
4000,-14.819695472717285,4.0993309020996085,276.14999389648443,-0.05844341218471528,-0.019863206893205643,9.73577117919922,-0.16158321499824524,-0.09116727113723756,0.2895401418209076,0.4860399961471558,-0.2714399993419647,0.2682499885559082,1192,1127,1236,1083,0,0,0,6,2,0
4002,-14.595539093017578,4.234781265258788,274.60836791992193,-0.04977552592754364,-0.013587318360805513,9.741660118103027,-0.16850309073925018,-0.1028628945350647,0.4973040223121643,0.4860399961471558,-0.2714399993419647,0.2682499885559082,1192,1127,1236,1083,0,0,0,6,2,0
4004,-14.359265327453613,4.367054462432861,273.04824829101557,-0.03270663321018219,-0.005024673417210579,9.748308181762695,-0.2077256143093109,-0.1577741503715515,0.666766881942749,0.4860399961471558,-0.2714399993419647,0.2682499885559082,1192,1127,1236,1083,0,0,0,6,2,0
4006,-14.110255241394045,4.489227294921875,271.47116088867193,-0.017097512260079384,-0.007987212389707565,9.752400398254396,-0.12665247917175293,-0.1647041290998459,0.6895911693572998,0.4860399961471558,-0.2714399993419647,0.2682499885559082,1192,1127,1236,1083,0,0,0,6,2,0
4007,-13.981565952301025,4.5460755825042725,270.6732940673828,-0.005385978147387505,-0.0077082812786102295,9.753268718719482,-0.13121788948774338,-0.18559686839580536,0.6373409330844879,0.4860399961471558,-0.2714399993419647,0.2682499885559082,1190,1129,1239,1080,0,0,0,6,2,0
4008,-13.852876663208008,4.60292387008667,269.8754272460937,0.006325555965304375,-0.007429350167512894,9.75413703918457,-0.13578329980373385,-0.20648960769176486,0.585090696811676,0.4860399961471558,-0.2714399993419647,0.2682499885559082,1190,1129,1239,1080,0,0,0,6,2,0
4010,-13.69516658782959,4.8218417167663565,268.3275146484375,0.02125454694032669,-0.014816537499427797,9.751802444458008,-0.06507560610771179,-0.2330828011035919,0.3677476346492767,0.5988500118255615,-0.2334499955177307,0.25780999660491943,1190,1129,1239,1080,0,0,0,6,2,0
4012,-13.51657009124756,5.022770881652832,266.76473999023443,0.02581307664513588,-0.01637108065187931,9.751774787902832,-0.05043010041117668,-0.2531877160072327,0.13138511776924133,0.5988500118255615,-0.2334499955177307,0.25780999660491943,1190,1129,1239,1080,0,0,0,6,2,0
4014,-13.310242652893065,5.2033538818359375,265.18923950195307,0.01441713236272335,-0.022531336173415184,9.744887351989746,0.0273287296295166,-0.21867479383945465,-0.08672288060188292,0.5988500118255615,-0.2334499955177307,0.25780999660491943,1190,1129,1239,1080,0,0,0,6,2,0
4015,-13.191726207733154,5.284796714782715,264.39520263671875,0.004589238204061985,-0.022708975709974766,9.740779399871826,-0.002457737922668457,-0.2186000719666481,-0.16029313951730728,0.5988500118255615,-0.2334499955177307,0.25780999660491943,1190,1129,1242,1077,0,0,0,6,2,0
4016,-13.073209762573242,5.366239547729492,263.60116577148443,-0.005238655954599381,-0.022886615246534348,9.736671447753906,-0.032244205474853516,-0.21852535009384155,-0.23386339843273166,0.5988500118255615,-0.2334499955177307,0.25780999660491943,1190,1129,1242,1077,0,0,0,6,2,0
4018,-12.806683540344238,5.507065296173097,262.00155639648443,-0.02481435053050518,-0.03143617510795593,9.73099422454834,-0.12301033735275267,-0.20752418041229248,-0.34988000988960266,0.5988500118255615,-0.2334499955177307,0.25780999660491943,1190,1129,1242,1077,0,0,0,6,2,0
4020,-12.509855270385742,5.628194808959961,260.39041137695307,-0.0482693538069725,-0.035907626152038574,9.732131958007812,-0.1808905154466629,-0.1834462136030197,-0.4015050232410431,0.5988500118255615,-0.2334499955177307,0.25780999660491943,1190,1129,1242,1077,0,0,0,6,2,0
4022,-12.189050674438475,5.728046894073486,258.76620483398443,-0.06125081330537796,-0.04351597279310226,9.728160858154297,-0.2567251920700073,-0.15375293791294098,-0.3871455788612366,0.5988500118255615,-0.2334499955177307,0.25780999660491943,1190,1129,1242,1077,0,0,0,6,2,0
4023,-12.016555786132812,5.768084526062012,257.9469451904297,-0.06861789524555206,-0.04620907828211784,9.72695541381836,-0.25918281078338623,-0.12951384484767914,-0.3491435945034027,0.5988500118255615,-0.2334499955177307,0.25780999660491943,1190,1129,1244,1075,0,0,0,6,2,0
4024,-11.844060897827148,5.808122158050537,257.127685546875,-0.07598497718572618,-0.048902183771133416,9.725749969482422,-0.26164042949676514,-0.1052747517824173,-0.31114161014556885,0.5988500118255615,-0.2334499955177307,0.25780999660491943,1190,1129,1244,1075,0,0,0,6,2,0
4026,-11.24327564239502,5.659850597381593,255.45628356933597,-0.08292625099420547,-0.04547897353768349,9.731186866760254,-0.3018503785133362,-0.0540136955678463,-0.18364161252975464,0.4274599850177765,-0.25404000282287603,0.2641899883747101,1190,1129,1244,1075,0,0,0,6,2,0
4028,-10.649295806884766,5.520421504974365,253.75108337402344,-0.0801788717508316,-0.04110768437385559,9.722756385803224,-0.3205640316009521,-0.0422288291156292,-0.02047997713088989,0.4274599850177765,-0.25404000282287603,0.2641899883747101,1190,1129,1244,1075,0,0,0,6,2,0
4030,-10.064393997192383,5.389116287231445,252.0110321044922,-0.07295645028352737,-0.033813074231147766,9.73098087310791,-0.4362286925315857,-0.08853647857904434,0.15399308502674106,0.4274599850177765,-0.25404000282287603,0.2641899883747101,1190,1129,1244,1075,0,0,0,6,2,0
4031,-9.781026840209961,5.325637578964233,251.12299346923828,-0.06288240849971771,-0.030679721385240555,9.734056949615479,-0.43458281457424164,-0.10284916684031487,0.2113678827881813,0.4274599850177765,-0.25404000282287603,0.2641899883747101,1187,1132,1249,1070,0,0,0,6,2,0
4032,-9.497659683227539,5.2621588706970215,250.2349548339844,-0.05280836671590805,-0.027546368539333344,9.737133026123047,-0.4329369366168976,-0.1171618551015854,0.2687426805496216,0.4274599850177765,-0.25404000282287603,0.2641899883747101,1187,1132,1249,1070,0,0,0,6,2,0
4034,-8.948402404785156,5.140921592712402,248.42308044433597,-0.03163272514939308,-0.016618344932794567,9.738762855529783,-0.4149653017520905,-0.1356458216905594,0.3471510708332062,0.4274599850177765,-0.25404000282287603,0.2641899883747101,1187,1132,1249,1070,0,0,0,6,2,0
4036,-8.421440124511719,5.018624782562256,246.57467651367188,-0.003324180841445923,-0.009498279541730879,9.739622116088867,-0.3826229572296143,-0.1562233865261078,0.3044381737709045,0.4274599850177765,-0.25404000282287603,0.2641899883747101,1187,1132,1249,1070,0,0,0,6,2,0
4038,-7.8964619636535645,4.890871524810791,244.6967315673828,0.004022326786071062,-0.0044814255088567725,9.741644859313963,-0.3391627669334412,-0.1812705546617508,0.1726546436548233,0.4274599850177765,-0.25404000282287603,0.2641899883747101,1187,1132,1249,1070,0,0,0,6,2,0
4039,-7.641259670257568,4.820616006851196,243.74069213867188,0.014321589143946765,-0.004161080811172724,9.733327865600586,-0.3142031878232956,-0.18935725837945938,0.07496535032987595,0.4274599850177765,-0.25404000282287603,0.2641899883747101,1191,1128,1252,1067,0,0,0,6,2,0
4040,-7.386057376861572,4.750360488891602,242.7846527099609,0.024620851501822468,-0.003840736113488674,9.725010871887207,-0.28924360871315,-0.197443962097168,-0.022723942995071408,0.4274599850177765,-0.25404000282287603,0.2641899883747101,1191,1128,1252,1067,0,0,0,6,2,0
4042,-5.541299819946289,3.497837781906128,242.87535095214844,0.030999248847365383,-0.012118283659219742,9.710086822509766,-0.20350316166877747,-0.19404225051403048,-0.2331598848104477,0.16268999874591827,-0.22648999094963074,0.2873899936676025,1191,1128,1252,1067,0,0,0,6,2,0
4044,-3.824718952178955,2.310661792755127,242.68121337890625,0.02440687268972397,-0.021396342664957047,9.69650173187256,-0.1121946945786476,-0.16537252068519592,-0.4052385091781616,0.16268999874591827,-0.22648999094963074,0.2873899936676025,1191,1128,1252,1067,0,0,0,6,2,0
4046,-2.4483659267425537,1.355023741722107,242.06776428222656,0.0102796396240592,-0.03051912412047386,9.692587852478027,0.018487870693206787,-0.10704590380191804,-0.4719213247299194,0.16268999874591827,-0.22648999094963074,0.2873899936676025,1191,1128,1252,1067,0,0,0,6,2,0
4047,-2.0083836913108826,1.0687915682792664,241.5979766845703,-0.007966259028762579,-0.039024828001856804,9.690321922302246,0.08318986743688583,-0.051249332726001746,-0.455887570977211,0.16268999874591827,-0.22648999094963074,0.2873899936676025,1199,1120,1255,1064,0,0,0,6,2,0
4048,-1.5684014558792114,0.7825593948364258,241.1281890869141,-0.026212157681584358,-0.04753053188323975,9.688055992126463,0.14789186418056488,0.004547238349914551,-0.43985381722450256,0.16268999874591827,-0.22648999094963074,0.2873899936676025,1199,1120,1255,1064,0,0,0,3,2,0
4050,-1.0268394947052002,0.4910329282283783,240.12928771972656,-0.061566222459077835,-0.05806054547429085,9.688398361206056,0.2140972763299942,0.07683076709508896,-0.33914050459861755,0.16268999874591827,-0.22648999094963074,0.2873899936676025,1199,1120,1255,1064,0,0,0,3,2,0
4052,-0.6250943541526794,0.3179460167884827,239.20301818847656,-0.09607772529125214,-0.0662485659122467,9.69532871246338,0.18008765578269958,0.1321905106306076,-0.17270243167877194,0.16268999874591827,-0.22648999094963074,0.2873899936676025,1199,1120,1255,1064,0,0,0,3,2,0
4054,-0.3201804757118225,0.20202966034412384,238.37673950195312,-0.11842594295740128,-0.06993493437767029,9.710577011108398,0.18366777896881106,0.2191593497991562,-0.034845054149627686,0.16268999874591827,-0.22648999094963074,0.2873899936676025,1199,1120,1255,1064,0,0,0,3,2,0
4055,-0.22816554456949234,0.1813349649310112,238.0181121826172,-0.11768423765897751,-0.06377710029482841,9.70928430557251,0.13822248578071594,0.2618945762515068,0.006820034235715866,0.16268999874591827,-0.22648999094963074,0.2873899936676025,1223,1096,1257,1062,0,0,0,3,2,0
4056,-0.13615061342716214,0.16064026951789856,237.65948486328125,-0.11694253236055376,-0.057619266211986535,9.70799160003662,0.09277719259262084,0.3046298027038574,0.04848512262105942,0.16268999874591827,-0.22648999094963074,0.2873899936676025,1223,1096,1257,1062,0,0,0,4,2,0
4058,-1.12471342086792,1.0635180473327637,235.80877685546875,-0.09241625666618347,-0.04854927584528923,9.706003189086914,0.045099642127752304,0.3415924906730652,0.11088544130325316,0.16965000331401825,-0.15253999829292295,0.29754000902175903,1223,1096,1257,1062,0,0,0,4,2,0
4060,-1.4537458419799805,1.2904272079467771,233.6263732910156,-0.052143622189760215,-0.03995365276932717,9.713701248168944,0.08249746263027191,0.3369131982326508,0.17197099328041074,0.16965000331401825,-0.15253999829292295,0.29754000902175903,1223,1096,1257,1062,0,0,0,4,2,0
4062,-1.3846262693405151,1.0651302337646484,231.5374755859375,-0.016344644129276276,-0.049035675823688514,9.725804328918457,0.11468251049518585,0.2973396778106689,0.20227085053920746,0.16965000331401825,-0.15253999829292295,0.29754000902175903,1223,1096,1257,1062,0,0,0,4,2,0
4063,-1.3004615306854248,0.9233669638633728,230.59716033935547,-0.005072183907032013,-0.05279974453151226,9.725587844848633,0.1296985074877739,0.2706576213240623,0.20456469058990479,0.16965000331401825,-0.15253999829292295,0.29754000902175903,1226,1093,1258,1061,0,0,0,4,2,0
4064,-1.2162967920303345,0.7816036939620972,229.65684509277344,0.00620027631521225,-0.056563813239336014,9.725371360778807,0.14471450448036194,0.2439755648374557,0.2068585306406021,0.16965000331401825,-0.15253999829292295,0.29754000902175903,1226,1093,1258,1061,0,0,0,4,2,0
4066,-1.0245482921600342,0.5317021608352661,228.03073120117188,0.016977652907371518,-0.06219537928700448,9.71565055847168,0.16083937883377075,0.17826448380947113,0.09925495833158493,0.16965000331401825,-0.15253999829292295,0.29754000902175903,1226,1093,1258,1061,0,0,0,4,2,0
4068,-0.8340883255004883,0.3544226288795471,226.6838836669922,0.019807377830147743,-0.0605769120156765,9.72380828857422,0.16924983263015747,0.17157505452632904,-0.05327904224395752,0.16965000331401825,-0.15253999829292295,0.29754000902175903,1226,1093,1258,1061,0,0,0,4,2,0
4070,-0.6886303424835205,0.2627244293689728,225.6149444580078,0.02447175234556198,-0.048472288995981216,9.71861743927002,0.1524093598127365,0.12278977781534195,-0.2542216181755066,0.16965000331401825,-0.15253999829292295,0.29754000902175903,1226,1093,1258,1061,0,0,0,4,2,0
4071,-0.6005774438381195,0.20345570147037506,225.1949234008789,0.019023103173822165,-0.04959855228662491,9.72113847732544,0.1493287906050682,0.09399328753352165,-0.32233990728855133,0.16965000331401825,-0.15253999829292295,0.29754000902175903,1218,1101,1259,1060,0,0,0,4,2,0
4072,-0.5125245451927185,0.14418697357177734,224.77490234375,0.013574454002082348,-0.0507248155772686,9.72365951538086,0.1462482213973999,0.06519679725170135,-0.3904581964015961,0.16965000331401825,-0.15253999829292295,0.29754000902175903,1218,1101,1259,1060,0,0,0,2,2,0
4074,-1.0274695158004759,1.125946879386902,222.93788146972656,0.005153982900083065,-0.05335826426744461,9.72177028656006,0.06647059321403502,-0.0432632640004158,-0.3866558969020844,0.37700000405311584,-0.0997599959373474,0.2702800035476685,1218,1101,1259,1060,0,0,0,2,2,0
4076,-1.3783549070358276,1.92218029499054,220.9770812988281,-0.04636583849787712,-0.07821877300739287,9.718280792236328,0.04884584620594978,0.002105284482240677,-0.2914881706237793,0.37700000405311584,-0.0997599959373474,0.2702800035476685,1218,1101,1259,1060,0,0,0,2,2,0
4078,-1.5724947452545166,2.524753332138061,218.92335510253903,-0.0736457109451294,-0.07645481824874878,9.700446128845217,-0.011180385947227478,0.0406620167195797,-0.1924259215593338,0.37700000405311584,-0.0997599959373474,0.2702800035476685,1218,1101,1259,1060,0,0,0,2,2,0
4079,-1.5878202319145203,2.713761568069458,217.86203002929688,-0.08766816183924675,-0.07988273352384567,9.698171615600586,-0.07964664697647095,0.08975902013480662,-0.15205055847764015,0.37700000405311584,-0.0997599959373474,0.2702800035476685,1224,1095,1260,1059,0,0,0,2,2,0
4080,-1.6031457185745241,2.9027698040008545,216.8007049560547,-0.1016906127333641,-0.08331064879894258,9.695897102355957,-0.14811290800571442,0.13885602355003354,-0.1116751953959465,0.37700000405311584,-0.0997599959373474,0.2702800035476685,1224,1095,1260,1059,0,0,0,2,2,0
4082,-1.5382742881774902,3.0799710750579834,214.64312744140625,-0.09783246368169783,-0.07867977023124695,9.691603660583496,-0.28953489661216736,0.11837321519851685,0.09126807749271393,0.37700000405311584,-0.0997599959373474,0.2702800035476685,1224,1095,1260,1059,0,0,0,2,2,0
4084,-1.4093685150146484,3.0595524311065674,212.46685791015625,-0.08689172565937042,-0.08338088542222978,9.700950622558594,-0.3586554825305939,0.08980107307434082,0.33565807342529297,0.37700000405311584,-0.0997599959373474,0.2702800035476685,1224,1095,1260,1059,0,0,0,2,2,0
4086,-1.2260935306549072,2.8391907215118413,210.28900146484372,-0.08047356456518172,-0.10470430552959442,9.707928657531738,-0.3732223212718964,0.11237451434135436,0.5630992650985718,0.37700000405311584,-0.0997599959373474,0.2702800035476685,1224,1095,1260,1059,0,0,0,2,2,0
4087,-1.1291714310646057,2.6800812482833867,209.19718933105466,-0.07247238978743553,-0.10333480313420296,9.705749034881592,-0.3840395957231522,0.14939644932746884,0.6043646037578583,0.37700000405311584,-0.0997599959373474,0.2702800035476685,1214,1105,1265,1054,0,0,0,2,2,0
4088,-1.0322493314743042,2.520971775054932,208.1053771972656,-0.06447121500968933,-0.10196530073881148,9.703569412231444,-0.394856870174408,0.18641838431358335,0.6456299424171448,0.37700000405311584,-0.0997599959373474,0.2702800035476685,1214,1105,1265,1054,0,0,0,2,2,0
4090,-0.18591445684432986,0.8376537561416626,209.1853790283203,-0.024177372455596924,-0.08898129314184189,9.721293449401855,-0.3821122646331787,0.1192869395017624,0.6453007459640503,0.2740499973297119,-0.20792999863624573,0.3213199973106384,1214,1105,1265,1054,0,0,0,2,2,0
4092,0.3350525200366974,-0.5313994288444519,210.43310546875,0.022458605468273163,-0.07861045002937317,9.737541198730467,-0.2958900332450867,0.0810508131980896,0.6140048503875732,0.2740499973297119,-0.20792999863624573,0.3213199973106384,1214,1105,1265,1054,0,0,0,2,2,0
4094,0.4149323403835297,-1.163395881652832,211.7408142089844,0.0438680425286293,-0.0749489814043045,9.7339506149292,-0.3752012252807617,0.05794582515954971,0.5523948669433594,0.2740499973297119,-0.20792999863624573,0.3213199973106384,1214,1105,1265,1054,0,0,0,2,2,0
4095,0.364532008767128,-1.1566418409347534,212.3062744140625,0.04359324276447296,-0.0685457494109869,9.730620861053467,-0.37198591232299805,0.0405622161924839,0.4661916643381119,0.2740499973297119,-0.20792999863624573,0.3213199973106384,1212,1107,1267,1052,0,0,0,2,2,0
4096,0.3141316771507263,-1.1498878002166748,212.87173461914062,0.04331844300031662,-0.0621425174176693,9.727291107177734,-0.3687705993652344,0.02317860722541809,0.3799884617328644,0.2740499973297119,-0.20792999863624573,0.3213199973106384,1212,1107,1267,1052,0,0,0,5,5,0
4098,0.18886105716228485,-0.9333109855651855,213.80897521972656,0.045883804559707635,-0.04428257048130035,9.741988182067873,-0.3801745474338532,-0.01340167410671711,0.1566423624753952,0.2740499973297119,-0.20792999863624573,0.3213199973106384,1212,1107,1267,1052,0,0,0,5,5,0
4100,0.09806391596794127,-0.6865315437316895,214.5869598388672,0.044751022011041634,-0.023965409025549892,9.756279945373537,-0.27039435505867004,-0.04452760517597199,-0.01185011863708496,0.2740499973297119,-0.20792999863624573,0.3213199973106384,1212,1107,1267,1052,0,0,0,5,5,0
4102,0.167863667011261,-0.5386867523193359,215.20846557617188,0.01113438606262207,-0.024935895577073097,9.75546932220459,-0.10540512204170227,0.0008627139031887053,-0.007175654172897339,0.2740499973297119,-0.20792999863624573,0.3213199973106384,1212,1107,1267,1052,0,0,0,5,5,0
4103,0.2869597226381302,-0.5093321800231934,215.4305419921875,-0.01965445838868618,-0.03196661826223135,9.74788522720337,-0.13453063368797302,0.02919701859354973,0.027560751885175705,0.2740499973297119,-0.20792999863624573,0.3213199973106384,1230,1089,1260,1059,0,0,0,5,5,0
4104,0.4060557782649994,-0.4799776077270508,215.65261840820312,-0.05044330283999443,-0.0389973409473896,9.740301132202148,-0.16365614533424375,0.05753132328391075,0.06229715794324875,0.2740499973297119,-0.20792999863624573,0.3213199973106384,1230,1089,1260,1059,0,0,0,2,5,0
4106,0.036322765052318566,0.2409474700689316,213.6728973388672,-0.07002615928649902,-0.05036734789609909,9.715394020080566,-0.1572580337524414,0.14216837286949158,0.10228252410888672,0.4390600025653839,-0.2485300004482269,0.27549999952316284,1230,1089,1260,1059,0,0,0,2,5,0
4108,0.030975108966231343,0.20453351736068728,211.94314575195312,-0.061104968190193176,-0.059592250734567635,9.720854759216307,-0.0846230685710907,0.18916624784469604,0.19894762337207794,0.4390600025653839,-0.2485300004482269,0.27549999952316284,1230,1089,1260,1059,0,0,0,2,5,0
4110,0.02589569054543972,-0.04581257328391075,210.8021240234375,-0.035347722470760345,-0.06833931803703308,9.739420890808104,-0.012043625116348268,0.234148383140564,0.33929872512817383,0.4390600025653839,-0.2485300004482269,0.27549999952316284,1230,1089,1260,1059,0,0,0,2,5,0
4111,0.014335380285046995,-0.13604635559022427,210.47107696533203,-0.026154719293117523,-0.07083345577120781,9.74864673614502,0.020531613379716873,0.24479466676712042,0.3740722835063934,0.4390600025653839,-0.2485300004482269,0.27549999952316284,1228,1091,1260,1059,0,0,0,2,5,0
4112,0.0027750700246542692,-0.22628013789653775,210.14002990722656,-0.0169617161154747,-0.07332759350538254,9.757872581481934,0.05310685187578201,0.2554409503936768,0.4088458418846129,0.4390600025653839,-0.2485300004482269,0.27549999952316284,1228,1091,1260,1059,0,0,0,2,5,0
4114,0.057918529957532876,-0.3069249391555786,209.7693023681641,-0.020847121253609657,-0.0714041218161583,9.763283729553224,0.11098488420248033,0.3535526394844055,0.3486087918281555,0.4390600025653839,-0.2485300004482269,0.27549999952316284,1228,1091,1260,1059,0,0,0,2,5,0
4116,0.052337151020765305,-0.34742486476898193,209.56483459472656,-0.013940968550741673,-0.06968588382005693,9.756277084350586,0.06734852492809296,0.3064561784267425,0.348638117313385,0.4390600025653839,-0.2485300004482269,0.27549999952316284,1228,1091,1260,1059,0,0,0,2,5,0
4118,0.05174528062343597,-0.4746984243392944,209.4385223388672,-0.012171681970357895,-0.09072458744049072,9.769977569580078,0.029056347906589505,0.22037217020988464,0.5300830006599426,0.4390600025653839,-0.2485300004482269,0.27549999952316284,1228,1091,1260,1059,0,0,0,2,5,0
4119,-0.012930955737829215,-0.5088707208633423,209.40070343017578,0.0014505712315440178,-0.09453121945261955,9.779969692230225,0.021375609096139666,0.21787075698375702,0.5355604290962219,0.4390600025653839,-0.2485300004482269,0.27549999952316284,1224,1095,1260,1059,0,0,0,2,5,0
4120,-0.07760719209909439,-0.5430430173873901,209.3628845214844,0.01507282443344593,-0.09833785146474837,9.789961814880373,0.013694870285689829,0.2153693437576294,0.5410378575325012,0.4390600025653839,-0.2485300004482269,0.27549999952316284,1224,1095,1260,1059,0,0,0,2,5,0
4122,0.3823857605457306,-1.3084644079208374,210.8474273681641,0.04143448919057846,-0.08306127041578293,9.794488906860352,-0.013142339885234831,0.2140708863735199,0.32904767990112305,0.2908700108528137,-0.2343199998140335,0.3065299987792969,1224,1095,1260,1059,0,0,0,2,5,0
4124,0.5424922704696655,-1.5300447940826416,212.26092529296875,0.03303755447268486,-0.07854393124580382,9.81472110748291,0.1538011133670807,0.2043525576591492,0.18937094509601596,0.2908700108528137,-0.2343199998140335,0.3065299987792969,1224,1095,1260,1059,0,0,0,2,5,0
4126,0.5642290711402893,-1.4781512022018433,213.4904022216797,0.01550666801631451,-0.08573039621114731,9.811505317687988,0.2921533286571503,0.2780177891254425,0.15588229894638062,0.2908700108528137,-0.2343199998140335,0.3065299987792969,1224,1095,1260,1059,0,0,0,2,5,0
4127,0.5201594978570938,-1.4046874046325684,214.00977325439453,0.016282265074551105,-0.08754277601838112,9.810535430908203,0.26990140229463583,0.29009518027305603,0.10556741431355476,0.2908700108528137,-0.2343199998140335,0.3065299987792969,1226,1093,1260,1059,0,0,0,2,5,0
4128,0.4760899245738983,-1.3312236070632937,214.52914428710938,0.017057862132787704,-0.08935515582561493,9.809565544128418,0.2476494759321213,0.3021725714206696,0.05525252968072891,0.2908700108528137,-0.2343199998140335,0.3065299987792969,1226,1093,1260,1059,0,0,0,4,3,0
4130,0.3258596658706665,-1.13837993144989,215.3960266113281,0.02918481081724167,-0.08091852068901062,9.813156127929688,0.2940537929534912,0.38380074501037603,-0.1848500370979309,0.2908700108528137,-0.2343199998140335,0.3065299987792969,1226,1093,1260,1059,0,0,0,4,3,0
4132,0.3382264971733093,-0.9296597242355348,216.10972595214844,-0.0016284473240375519,-0.06727590411901474,9.819682121276855,0.3748785853385925,0.4314597547054291,-0.3579466044902801,0.2908700108528137,-0.2343199998140335,0.3065299987792969,1226,1093,1260,1059,0,0,0,4,3,0
4134,0.4363324940204621,-0.7933240532875061,216.67254638671875,-0.038385603576898575,-0.06948212534189224,9.807229042053224,0.3876287341117859,0.3757849633693695,-0.23388519883155826,0.2908700108528137,-0.2343199998140335,0.3065299987792969,1226,1093,1260,1059,0,0,0,4,3,0
4135,0.45398448407649994,-0.7570715248584747,216.88592529296875,-0.04474872723221779,-0.07336640357971191,9.795172214508057,0.36658337712287903,0.408728763461113,-0.18127360939979553,0.2908700108528137,-0.2343199998140335,0.3065299987792969,1231,1088,1257,1062,0,0,0,4,3,0
4136,0.4716364741325378,-0.7208189964294434,217.09930419921875,-0.051111850887537,-0.07725068181753159,9.78311538696289,0.34553802013397217,0.4416725635528565,-0.12866201996803284,0.2908700108528137,-0.2343199998140335,0.3065299987792969,1231,1088,1257,1062,0,0,0,3,3,0
4138,1.7279174327850342,-1.5597745180130005,218.4442596435547,-0.03136797994375229,-0.07108363509178163,9.79224967956543,0.2881099879741669,0.5112490057945251,-0.2454202920198441,0.0727899968624115,-0.26883000135421753,0.3250899910926819,1231,1088,1257,1062,0,0,0,3,3,0
4140,2.7847201824188232,-2.2639949321746826,219.86688232421875,-0.03597753494977951,-0.06991226971149445,9.79512882232666,0.39413368701934814,0.5193250775337219,-0.22402501106262207,0.0727899968624115,-0.26883000135421753,0.3250899910926819,1231,1088,1257,1062,0,0,0,3,3,0
4143,2.7684151445116316,-2.1404353380203247,222.27098301478796,-0.040275219295706065,-0.06187092486236777,9.797154017857142,0.37858145577566965,0.5143026113510132,-0.16243112512997218,0.06918571144342422,-0.25453714387757437,0.3260014184883663,1228,1091,1260,1059,0,0,0,3,3,0
4144,2.75211010660444,-2.016875743865967,224.67508370535717,-0.04457290364163262,-0.05382958001324109,9.799179213387625,0.36302922453199116,0.5092801451683044,-0.10083723919732229,0.06558142602443695,-0.2402442864009312,0.3269128458840507,1228,1091,1260,1059,0,0,0,15,7,0
4151,2.7358050686972484,-1.8933161497116089,227.07918439592638,-0.04887058798755917,-0.04578823516411441,9.801204408918107,0.34747699328831266,0.5042576789855957,-0.03924335326467241,0.061977140605449677,-0.22595142892428804,0.32782427327973507,1242,1077,1263,1056,0,0,0,15,7,0
4152,2.7195000307900568,-1.769756555557251,229.48328508649558,-0.05316827233348573,-0.037746890314987736,9.803229604448589,0.33192476204463417,0.49923521280288696,0.02235053266797747,0.0583728551864624,-0.21165857144764488,0.32873570067541946,1242,1077,1263,1056,0,0,0,15,7,0
4159,2.703194992882865,-1.646196961402893,231.8873857770648,-0.05746595667941228,-0.029705545465861058,9.805254799979071,0.3163725308009557,0.4942127466201782,0.08394441860062735,0.05476856976747513,-0.19736571397100172,0.32964712807110386,1245,1074,1266,1053,0,0,0,15,7,0
4160,2.6868899549756735,-1.5226373672485352,234.291486467634,-0.061763641025338836,-0.02166420061673438,9.807279995509553,0.3008202995572772,0.4891902804374695,0.14553830453327724,0.051164284348487854,-0.18307285649435856,0.33055855546678825,1245,1074,1266,1053,0,0,0,8,1,0
4166,2.670584917068481,-1.3990777730941772,236.69558715820312,-0.06606132537126541,-0.013622855767607687,9.809305191040039,0.28526806831359863,0.4841678142547608,0.20713219046592712,0.04755999892950058,-0.16877999901771545,0.3314699828624725,1245,1074,1266,1053,0,0,0,8,1,0
4167,2.613524556159973,-1.3081185817718506,237.18474578857422,-0.06402968615293503,-0.007452447898685931,9.81905221939087,0.2911122888326645,0.5608010590076447,0.14595290273427963,0.04755999892950058,-0.16877999901771545,0.3314699828624725,1237,1082,1264,1055,0,0,0,8,1,0
4168,2.556464195251465,-1.2171593904495241,237.6739044189453,-0.06199804693460465,-0.0012820400297641756,9.8287992477417,0.29695650935173035,0.6374343037605286,0.08477361500263214,0.04755999892950058,-0.16877999901771545,0.3314699828624725,1237,1082,1264,1055,0,0,0,9,1,0
4170,3.738936424255371,-1.4369447231292725,238.8270721435547,-0.051055699586868286,-0.02461882494390011,9.830276489257812,0.3216729760169983,0.5335875749588013,0.3175010085105896,-0.013629999943077564,-0.17283999919891355,0.31029999256134033,1237,1082,1264,1055,0,0,0,9,1,0
4172,4.4139404296875,-1.5251039266586304,240.0694580078125,-0.03355581313371658,-0.009170032106339931,9.837121963500977,0.2957212030887604,0.39414307475090027,0.4656786918640137,-0.013629999943077564,-0.17283999919891355,0.31029999256134033,1237,1082,1264,1055,0,0,0,9,1,0
4174,4.6866865158081055,-1.495452880859375,241.3206329345703,-0.022803846746683117,0.006470000371336937,9.854395866394043,0.29833984375,0.6032321453094482,0.17858007550239566,-0.013629999943077564,-0.17283999919891355,0.31029999256134033,1237,1082,1264,1055,0,0,0,9,1,0
4175,4.698208332061768,-1.5055431127548218,241.9275131225586,-0.01493790093809366,-0.012624681927263737,9.85487985610962,0.33280737698078156,0.5708999335765839,0.17964855581521988,-0.013629999943077564,-0.17283999919891355,0.31029999256134033,1236,1083,1265,1054,0,0,0,9,1,0
4176,4.70973014831543,-1.5156333446502686,242.53439331054688,-0.007071955129504205,-0.03171936422586441,9.855363845825195,0.3672749102115631,0.5385677218437195,0.18071703612804413,-0.013629999943077564,-0.17283999919891355,0.31029999256134033,1236,1083,1265,1054,0,0,0,17,2,0
4178,4.574749946594238,-1.529778003692627,243.711669921875,0.02187868393957615,-0.051725581288337714,9.82352352142334,0.36986076831817627,0.2989368438720703,0.2919537127017975,-0.013629999943077564,-0.17283999919891355,0.31029999256134033,1236,1083,1265,1054,0,0,0,17,2,0
4180,4.436724185943604,-1.4910950660705566,244.8578948974609,0.018373690545558933,-0.049425870180130005,9.816439628601074,0.3782918751239777,0.4481584429740906,-0.041631966829299934,-0.013629999943077564,-0.17283999919891355,0.31029999256134033,1236,1083,1265,1054,0,0,0,17,2,0
4182,4.309767246246338,-1.4261653423309326,245.9718475341797,0.011008098721504213,-0.04820330440998077,9.8318452835083,0.3909701108932495,0.6912916302680969,-0.3991624116897583,-0.013629999943077564,-0.17283999919891355,0.31029999256134033,1236,1083,1265,1054,0,0,0,17,2,0
4183,4.22683310508728,-1.421910047531128,246.5104522705078,0.017385786399245266,-0.06195979192852974,9.824231147766113,0.3662022799253464,0.6322711408138275,-0.3757830858230591,-0.013629999943077564,-0.17283999919891355,0.31029999256134033,1242,1077,1270,1049,0,0,0,17,2,0
4184,4.1438989639282235,-1.4176547527313232,247.04905700683597,0.023763474076986316,-0.0757162794470787,9.816617012023926,0.34143444895744324,0.5732506513595581,-0.35240375995635986,-0.013629999943077564,-0.17283999919891355,0.31029999256134033,1242,1077,1270,1049,0,0,0,13,1,0
4186,3.5861618518829346,-1.3311233520507812,248.03445434570312,0.013017596676945686,-0.08722952753305435,9.83610725402832,0.27966806292533875,0.4090021848678589,-0.3036804795265198,-0.012179999612271786,-0.14093999564647675,0.3172599971294403,1242,1077,1270,1049,0,0,0,13,1,0
4188,3.4410266876220703,-1.237524151802063,249.0308532714844,-0.02420919202268124,-0.08013594895601273,9.84371566772461,0.21035358309745789,0.6552220582962036,-0.5480195879936218,-0.012179999612271786,-0.14093999564647675,0.3172599971294403,1242,1077,1270,1049,0,0,0,13,1,0
4190,3.3144800662994385,-1.2598229646682741,249.9927215576172,-0.022816434502601624,-0.11011256277561188,9.823277473449707,0.11595091223716734,0.6354910731315613,-0.4789503812789917,-0.012179999612271786,-0.14093999564647675,0.3172599971294403,1242,1077,1270,1049,0,0,0,13,1,0
4191,3.273784637451172,-1.2845520377159119,250.45713806152344,-0.02955901250243187,-0.12114740163087845,9.830720901489258,0.04172053933143614,0.5076044648885727,-0.3632849007844925,-0.012179999612271786,-0.14093999564647675,0.3172599971294403,1241,1078,1268,1051,0,0,0,13,1,0
4192,3.2330892086029053,-1.3092811107635498,250.9215545654297,-0.036301590502262115,-0.13218224048614502,9.838164329528807,-0.032509833574295044,0.3797178566455841,-0.2476194202899933,-0.012179999612271786,-0.14093999564647675,0.3172599971294403,1241,1078,1268,1051,0,0,0,10,1,0
4194,3.231340885162353,-1.291577696800232,251.81814575195312,-0.07111373543739319,-0.12914736568927765,9.84650707244873,-0.15276873111724856,0.4877486228942871,-0.32499805092811584,-0.012179999612271786,-0.14093999564647675,0.3172599971294403,1241,1078,1268,1051,0,0,0,10,1,0
4196,3.124207735061645,-1.2592618465423584,252.6843719482422,-0.05899678915739059,-0.12941867113113406,9.817484855651855,-0.2262459993362427,0.6638680100440979,-0.3122504949569702,-0.012179999612271786,-0.14093999564647675,0.3172599971294403,1241,1078,1268,1051,0,0,0,10,1,0
4198,2.937126874923706,-1.2334107160568235,253.5271453857422,-0.029670204967260364,-0.13297556340694427,9.805158615112305,-0.2450777590274811,0.6271036267280579,-0.14490409195423126,-0.012179999612271786,-0.14093999564647675,0.3172599971294403,1241,1078,1268,1051,0,0,0,10,1,0
4199,2.903607964515686,-1.2302753329277039,253.93618774414062,-0.03981386311352253,-0.1375199481844902,9.826537609100342,-0.26093240082263947,0.5812994241714478,-0.06225644052028656,-0.012179999612271786,-0.14093999564647675,0.3172599971294403,1238,1081,1269,1050,0,0,0,10,1,0
4200,2.870089054107666,-1.227139949798584,254.34523010253903,-0.0499575212597847,-0.14206433296203613,9.84791660308838,-0.27678704261779785,0.5354952216148376,0.020391210913658142,-0.012179999612271786,-0.14093999564647675,0.3172599971294403,1238,1081,1269,1050,0,0,0,10,1,0
4202,1.79840886592865,-1.0368226766586304,254.5089263916016,-0.040270403027534485,-0.12477635592222215,9.859354019165039,-0.2901291251182556,0.6601386666297913,-0.0021623633801937108,0.030740000307559967,-0.18589000403881076,0.3117499947547913,1238,1081,1269,1050,0,0,0,10,1,0
4204,1.2405877113342283,-0.9397212266921996,254.7816619873047,-0.0036115013062953953,-0.116782084107399,9.83545207977295,-0.2736915349960327,0.6765038967132568,0.002307976130396128,0.030740000307559967,-0.18589000403881076,0.3117499947547913,1238,1081,1269,1050,0,0,0,10,1,0
4206,1.0472161769866943,-0.9671316146850586,255.0864562988281,-0.019736506044864655,-0.14058999717235565,9.866559982299805,-0.2546503841876984,0.6057529449462891,0.07453083992004395,0.030740000307559967,-0.18589000403881076,0.3117499947547913,1238,1081,1269,1050,0,0,0,10,1,0
4207,0.9782280921936035,-0.9446646273136139,255.2385025024414,-0.012836179696023464,-0.131342064589262,9.865326881408691,-0.24680536985397342,0.6083739101886749,0.05899636633694172,0.030740000307559967,-0.18589000403881076,0.3117499947547913,1236,1083,1270,1049,0,0,0,10,1,0
4208,0.9092400074005128,-0.9221976399421692,255.3905487060547,-0.005935853347182274,-0.12209413200616835,9.864093780517578,-0.2389603555202484,0.6109948754310608,0.043461892753839486,0.030740000307559967,-0.18589000403881076,0.3117499947547913,1236,1083,1270,1049,0,0,0,3,1,0
4210,0.7508394718170166,-0.8278157114982605,255.6922607421875,0.023840861395001408,-0.09840328991413116,9.83056354522705,-0.17640331387519834,0.683684229850769,-0.10199683904647827,0.030740000307559967,-0.18589000403881076,0.3117499947547913,1236,1083,1270,1049,0,0,0,3,1,0
4212,0.7583813667297363,-0.8543007373809814,255.98028564453125,-0.010386578738689423,-0.1245683655142784,9.855210304260254,-0.15498733520507812,0.639342188835144,-0.13819588720798492,0.030740000307559967,-0.18589000403881076,0.3117499947547913,1236,1083,1270,1049,0,0,0,3,1,0
4214,0.7897526621818542,-0.9025617837905884,256.241455078125,-0.031601134687662125,-0.13967463374137878,9.891048431396484,-0.12959781289100647,0.5258143544197083,-0.06596240401268005,0.030740000307559967,-0.18589000403881076,0.3117499947547913,1236,1083,1270,1049,0,0,0,3,1,0
4215,0.7517520785331726,-0.8641300797462463,256.3640594482422,-0.020184366963803768,-0.12390759587287903,9.874438285827637,-0.09283426403999329,0.5007822215557098,-0.0785418301820755,0.030740000307559967,-0.18589000403881076,0.3117499947547913,1233,1086,1264,1055,0,0,0,3,1,0
4216,0.713751494884491,-0.8256983757019043,256.48666381835943,-0.008767599239945412,-0.10814055800437927,9.857828140258787,-0.0560707151889801,0.4757500886917114,-0.09112125635147096,0.030740000307559967,-0.18589000403881076,0.3117499947547913,1233,1086,1264,1055,0,0,0,5,1,0
4218,0.7976882457733154,-0.8374095559120178,256.7640991210937,-0.03068630024790764,-0.12113503366708755,9.861011505126953,-0.04308989644050598,0.630367636680603,-0.2765171825885773,0.032770000398159034,-0.21053999662399286,0.3207399845123291,1233,1086,1264,1055,0,0,0,5,1,0
4220,0.881354033946991,-0.9325745105743408,257.00692749023443,-0.060640770941972726,-0.15757989883422852,9.881587982177734,-0.10117900371551514,0.5700597763061523,-0.16007128357887268,0.032770000398159034,-0.21053999662399286,0.3207399845123291,1233,1086,1264,1055,0,0,0,5,1,0
4222,0.8448408246040344,-0.9558145403862,257.22720336914057,-0.04149165004491806,-0.1490616798400879,9.83570384979248,-0.08724772185087204,0.41672056913375854,-0.09327659755945206,0.032770000398159034,-0.21053999662399286,0.3207399845123291,1233,1086,1264,1055,0,0,0,5,1,0
4223,0.8523854911327362,-0.9994836151599884,257.3276062011718,-0.05180215463042259,-0.1635695844888687,9.831499099731445,-0.07969139143824577,0.5355429351329803,-0.18373945727944374,0.032770000398159034,-0.21053999662399286,0.3207399845123291,1234,1085,1264,1055,0,0,0,5,1,0
4224,0.859930157661438,-1.0431526899337769,257.42800903320307,-0.062112659215927124,-0.17807748913764954,9.82729434967041,-0.0721350610256195,0.6543653011322021,-0.2742023169994354,0.032770000398159034,-0.21053999662399286,0.3207399845123291,1234,1085,1264,1055,0,0,0,5,1,0
4226,0.8755334615707397,-1.1803255081176758,257.6065673828125,-0.07458065450191498,-0.21329215168952945,9.843257904052734,-0.1709100902080536,0.6780661940574646,-0.16665470600128174,0.032770000398159034,-0.21053999662399286,0.3207399845123291,1234,1085,1264,1055,0,0,0,5,1,0
4228,0.7787215709686279,-1.1994407176971436,257.775390625,-0.041592814028263085,-0.19418203830718994,9.791369438171387,-0.14518506824970245,0.4999515414237976,-0.039249271154403687,0.032770000398159034,-0.21053999662399286,0.3207399845123291,1234,1085,1264,1055,0,0,0,5,1,0
4230,0.7625493407249451,-1.1728696823120115,257.9383544921875,-0.05693475529551506,-0.1815467029809952,9.77237606048584,-0.12147705256938934,0.4913378059864044,-0.10036928951740264,0.032770000398159034,-0.21053999662399286,0.3207399845123291,1234,1085,1264,1055,0,0,0,5,1,0
4231,0.7598900198936462,-1.204538881778717,258.0128479003906,-0.060338156297802925,-0.19630887359380722,9.790678024291992,-0.11945980787277222,0.6077083200216293,-0.13544762879610062,0.032770000398159034,-0.21053999662399286,0.3207399845123291,1235,1084,1265,1054,0,0,0,5,1,0
4232,0.7572306990623474,-1.2362080812454224,258.0873413085937,-0.06374155730009079,-0.21107104420661926,9.808979988098145,-0.11744256317615508,0.7240788340568542,-0.17052596807479858,0.032770000398159034,-0.21053999662399286,0.3207399845123291,1235,1084,1265,1054,0,0,0,5,1,0
4234,0.23403798043727875,-1.09983229637146,258.02951049804693,-0.03467991203069687,-0.18656085431575772,9.798998832702637,-0.13561692833900452,0.6163272261619568,0.0100584477186203,0.022909998893737796,-0.11976999789476395,0.3184199929237366,1235,1084,1265,1054,0,0,0,5,1,0
4236,0.1932116448879242,-1.0895047187805176,258.03155517578125,-0.030558262020349506,-0.1857532262802124,9.781180381774902,-0.050163611769676215,0.5562611818313599,-0.04325090348720551,0.022909998893737796,-0.11976999789476395,0.3184199929237366,1235,1084,1265,1054,0,0,0,5,1,0
4238,0.17332316935062408,-1.267149567604065,258.03384399414057,-0.02819905057549477,-0.2222517728805542,9.809364318847656,0.020214848220348358,0.7239639759063721,-0.1337851583957672,0.022909998893737796,-0.11976999789476395,0.3184199929237366,1235,1084,1265,1054,0,0,0,5,1,0
4239,0.12818122282624245,-1.1912935376167297,258.0437774658203,-0.01630154624581337,-0.2037188708782196,9.803380012512207,0.020001880824565887,0.6899887025356293,-0.07854082062840462,0.022909998893737796,-0.11976999789476395,0.3184199929237366,1234,1085,1264,1055,0,0,0,5,1,0
4240,0.08303927630186081,-1.1154375076293943,258.0537109375,-0.004404041916131972,-0.185185968875885,9.797395706176758,0.019788913428783417,0.6560134291648865,-0.023296482861042026,0.022909998893737796,-0.11976999789476395,0.3184199929237366,1234,1085,1264,1055,0,0,0,3,1,0
4242,0.13261407613754272,-1.1892694234848022,258.07254028320307,-0.019188135862350464,-0.20464521646499634,9.789844512939453,-0.020451031625270844,0.5325500965118408,-0.10540160536766052,0.022909998893737796,-0.11976999789476395,0.3184199929237366,1234,1085,1264,1055,0,0,0,3,1,0
4244,0.12288782745599748,-1.3630355596542358,258.07943725585943,-0.018725205212831497,-0.2381815016269684,9.80611515045166,-0.012645501643419266,0.5679979920387268,-0.13415424525737762,0.022909998893737796,-0.11976999789476395,0.3184199929237366,1234,1085,1264,1055,0,0,0,3,1,0
4246,0.06599896401166916,-1.1425490379333496,258.0995483398437,-0.0025781169533729553,-0.1884530335664749,9.827475547790527,0.009744834154844284,0.6052471995353699,-0.07823016494512558,0.022909998893737796,-0.11976999789476395,0.3184199929237366,1234,1085,1264,1055,0,0,0,3,1,0
4247,0.07085765153169632,-1.0070129334926605,258.1168060302734,-0.002608540002256632,-0.1637987643480301,9.8181734085083,0.0302911289036274,0.5940031111240387,-0.09584260731935501,0.022909998893737796,-0.11976999789476395,0.3184199929237366,1233,1086,1260,1059,0,0,0,3,1,0
4248,0.07571633905172348,-0.8714768290519714,258.13406372070307,-0.0026389630511403084,-0.13914449512958527,9.808871269226074,0.050837423652410514,0.5827590227127075,-0.11345504969358446,0.022909998893737796,-0.11976999789476395,0.3184199929237366,1233,1086,1260,1059,0,0,0,3,1,0
4250,1.631879210472107,-0.8519394397735596,258.97225952148443,-0.034883420914411545,-0.17798928916454315,9.836356163024902,0.0748400166630745,0.5799549221992493,-0.2025100737810135,-0.05133000016212464,-0.16559000313282013,0.3308899998664856,1233,1086,1260,1059,0,0,0,3,1,0
4252,2.7250354290008545,-0.8129380941390991,259.8866577148437,-0.017829282209277153,-0.14823532104492188,9.822916030883787,0.15438398718833926,0.6013197302818298,-0.0964730978012085,-0.05133000016212464,-0.16559000313282013,0.3308899998664856,1233,1086,1260,1059,0,0,0,3,1,0
4254,3.3622915744781494,-0.7243584990501404,260.81268310546875,-0.03171572089195252,-0.11262286454439165,9.803580284118652,0.1511310636997223,0.6693515181541443,-0.14606289565563202,-0.05133000016212464,-0.16559000313282013,0.3308899998664856,1233,1086,1260,1059,0,0,0,3,1,0
4255,3.5227479934692383,-0.7569401860237122,261.2562561035156,-0.042754536494612694,-0.1386309303343296,9.817165851593018,0.14216426759958267,0.6840879321098328,-0.16886042803525925,-0.05133000016212464,-0.16559000313282013,0.3308899998664856,1234,1085,1262,1057,0,0,0,3,1,0
4256,3.6832044124603267,-0.7895218729972839,261.6998291015625,-0.053793352097272866,-0.16463899612426758,9.830751419067383,0.13319747149944305,0.6988243460655212,-0.19165796041488647,-0.05133000016212464,-0.16559000313282013,0.3308899998664856,1234,1085,1262,1057,0,0,0,16,1,0
4258,3.709963321685791,-0.7717620730400085,262.56298828125,-0.022499676793813702,-0.14198531210422516,9.822808265686037,0.1849631667137146,0.6313068866729736,-0.04012681543827057,-0.05133000016212464,-0.16559000313282013,0.3308899998664856,1234,1085,1262,1057,0,0,0,16,1,0
4260,3.6993346214294434,-0.7120882868766785,263.3974609375,-0.04021459072828293,-0.12496896088123323,9.818778038024902,0.17959100008010864,0.6662593483924866,-0.05845540389418603,-0.05133000016212464,-0.16559000313282013,0.3308899998664856,1234,1085,1262,1057,0,0,0,16,1,0
4262,3.616170644760132,-0.7855023741722107,264.19570922851557,-0.03231294453144073,-0.17433230578899386,9.830623626708984,0.20235562324523929,0.7560869455337524,-0.09852173924446106,-0.05133000016212464,-0.16559000313282013,0.3308899998664856,1234,1085,1262,1057,0,0,0,16,1,0
4263,3.5278854370117188,-0.8021320402622223,264.5857391357422,-0.014752693474292752,-0.17460600286722186,9.838624477386475,0.22750991582870483,0.7152018249034882,-0.05397340655326843,-0.05133000016212464,-0.16559000313282013,0.3308899998664856,1242,1077,1271,1048,0,0,0,16,1,0
4264,3.4396002292633057,-0.8187617063522339,264.97576904296875,0.002807557582855225,-0.17487969994544986,9.846625328063963,0.2526642084121704,0.6743167042732239,-0.009425073862075806,-0.05133000016212464,-0.16559000313282013,0.3308899998664856,1242,1077,1271,1048,0,0,0,13,1,0
4266,3.3635959625244136,-0.7067594528198242,265.76287841796875,0.004181149415671825,-0.12603916227817535,9.851303100585938,0.3122372329235077,0.5963672995567322,0.04534585773944855,-0.05220000073313713,-0.16559000313282013,0.3198699951171875,1242,1077,1271,1048,0,0,0,13,1,0
4268,3.325019359588623,-0.6954604387283325,266.5185546875,-0.02191975712776184,-0.15411719679832458,9.884214401245117,0.3661302626132965,0.7549367547035217,-0.04410529136657715,-0.05220000073313713,-0.16559000313282013,0.3198699951171875,1242,1077,1271,1048,0,0,0,13,1,0
4270,3.1492702960968018,-0.6781753301620483,267.2529296875,0.025973066687583923,-0.1525842249393463,9.87585163116455,0.5280322432518005,0.7672567367553711,-0.04022612422704697,-0.05220000073313713,-0.16559000313282013,0.3198699951171875,1242,1077,1271,1048,0,0,0,13,1,0
4271,3.08567476272583,-0.6622292697429657,267.6119689941406,0.022911028005182743,-0.14964955300092697,9.876436233520508,0.5696669518947601,0.7353206276893616,-0.022840658202767372,-0.05220000073313713,-0.16559000313282013,0.3198699951171875,1242,1077,1271,1048,0,0,0,13,1,0
4272,3.0220792293548584,-0.6462832093238831,267.97100830078125,0.019848989322781563,-0.14671488106250766,9.877020835876463,0.6113016605377197,0.703384518623352,-0.005455192178487778,-0.05220000073313713,-0.16559000313282013,0.3198699951171875,1242,1077,1271,1048,0,0,0,11,1,0
4274,2.9706735610961914,-0.7161262631416321,268.6611328125,-0.009915495291352272,-0.18841081857681274,9.918655395507812,0.5379495620727539,0.7901604771614075,-0.028939105570316318,-0.05220000073313713,-0.16559000313282013,0.3198699951171875,1242,1077,1271,1048,0,0,0,11,1,0
4276,2.7698516845703125,-0.7161611318588257,269.33627319335943,0.04833090677857399,-0.1720203459262848,9.890877723693848,0.5118655562400818,0.710215151309967,-0.038653843104839325,-0.05220000073313713,-0.16559000313282013,0.3198699951171875,1242,1077,1271,1048,0,0,0,11,1,0
4278,2.6648027896881104,-0.7230303287506104,269.996337890625,0.02820202335715294,-0.17763835191726685,9.891105651855467,0.5364785194396973,0.6376773118972778,-0.027514899149537086,-0.05220000073313713,-0.16559000313282013,0.3198699951171875,1242,1077,1271,1048,0,0,0,11,1,0
4279,2.675310730934143,-0.7729629278182983,270.3115234375,7.992051541805267e-05,-0.1990550011396408,9.909617900848387,0.5020656734704971,0.6376112103462219,-0.006576026789844036,-0.05220000073313713,-0.16559000313282013,0.3198699951171875,1242,1077,1269,1050,0,0,0,11,1,0
4280,2.685818672180176,-0.8228955268859863,270.626708984375,-0.028042182326316837,-0.2204716503620148,9.928130149841307,0.46765282750129705,0.637545108795166,0.014362845569849013,-0.05220000073313713,-0.16559000313282013,0.3198699951171875,1242,1077,1269,1050,0,0,0,9,1,0
4282,1.551339864730835,-0.9593426585197448,270.50344848632807,-0.009593719616532326,-0.20659589767456052,9.929373741149902,0.4106016755104065,0.6096764802932739,0.03765906766057015,-0.007539999671280384,-0.20705999433994293,0.3056600093841553,1242,1077,1269,1050,0,0,0,9,1,0
4284,0.9349189996719359,-0.9981508255004884,270.48251342773443,-0.011110029183328152,-0.18331977725028992,9.898067474365234,0.533218502998352,0.6763584017753601,-0.06932926177978516,-0.007539999671280384,-0.20705999433994293,0.3056600093841553,1242,1077,1269,1050,0,0,0,9,1,0
4286,0.7261068820953369,-1.1727588176727295,270.50778198242193,-0.056905273348093026,-0.24841928482055664,9.922833442687988,0.5544317960739136,0.7660120129585266,-0.033945128321647644,-0.007539999671280384,-0.20705999433994293,0.3056600093841553,1242,1077,1269,1050,0,0,0,9,1,0
4287,0.6337102651596069,-1.1758186221122742,270.53158569335943,-0.038742296397686005,-0.22748678922653195,9.913172721862793,0.5220421403646469,0.7184081673622131,-0.0004016272723674774,-0.007539999671280384,-0.20705999433994293,0.3056600093841553,1241,1078,1270,1049,0,0,0,9,1,0
4288,0.5413136482238771,-1.1788784265518188,270.55538940429693,-0.020579319447278976,-0.20655429363250727,9.903512001037598,0.4896524846553802,0.6708043217658997,0.03314187377691269,-0.007539999671280384,-0.20705999433994293,0.3056600093841553,1241,1078,1270,1049,0,0,0,3,2,0
4290,0.4679132103919983,-1.1370360851287842,270.61434936523443,-0.030037015676498413,-0.18662478029727936,9.862496376037598,0.4999843239784241,0.730402946472168,-0.13569825887680054,-0.007539999671280384,-0.20705999433994293,0.3056600093841553,1241,1078,1270,1049,0,0,0,3,2,0
4292,0.4754722118377686,-1.2521151304244995,270.67178344726557,-0.0520949587225914,-0.24668526649475095,9.89496898651123,0.4584760963916778,0.7757084369659424,-0.05909264832735061,-0.007539999671280384,-0.20705999433994293,0.3056600093841553,1241,1078,1270,1049,0,0,0,3,2,0
4294,0.3726566135883331,-1.1695340871810913,270.73171997070307,-0.006008565425872803,-0.18230311572551727,9.875955581665039,0.4414412379264832,0.642946720123291,0.03359801322221756,-0.007539999671280384,-0.20705999433994293,0.3056600093841553,1241,1078,1270,1049,0,0,0,3,2,0
4295,0.32057128846645355,-1.0683373510837555,270.76519775390625,0.005088476464152336,-0.14951593428850174,9.863116264343262,0.49505019187927246,0.6512774229049683,-0.014691118150949485,-0.007539999671280384,-0.20705999433994293,0.3056600093841553,1236,1083,1263,1056,0,0,0,3,2,0
4296,0.268485963344574,-0.9671406149864196,270.79867553710943,0.016185518354177475,-0.1167287528514862,9.850276947021484,0.5486591458320618,0.6596081256866455,-0.06298024952411653,-0.007539999671280384,-0.20705999433994293,0.3056600093841553,1236,1083,1263,1056,0,0,0,4,1,0
4298,0.4821794629096985,-0.9396216869354248,270.98751831054693,-0.022711481899023056,-0.16217677295207975,9.888233184814453,0.5621725916862488,0.8544751405715942,-0.1796475201845169,-0.011889999732375143,-0.1606599986553192,0.3071099817752838,1236,1083,1263,1056,0,0,0,4,1,0
4300,0.4621210396289826,-0.8792053461074829,271.15310668945307,0.00634046271443367,-0.14610804617404938,9.88998317718506,0.562126874923706,0.7613612413406372,0.008503720164299011,-0.011889999732375143,-0.1606599986553192,0.3071099817752838,1236,1083,1263,1056,0,0,0,4,1,0
4302,0.4262676537036896,-0.7203714847564697,271.31161499023443,0.011112211272120476,-0.10239528119564056,9.844592094421387,0.5429081916809082,0.6939725279808044,-0.08312101662158966,-0.011889999732375143,-0.1606599986553192,0.3071099817752838,1236,1083,1263,1056,0,0,0,4,1,0
4303,0.439284086227417,-0.7923864722251892,271.3846740722657,0.0013958122581243515,-0.13912226259708405,9.861239910125732,0.5084275454282761,0.7609591484069824,-0.14492977410554886,-0.011889999732375143,-0.1606599986553192,0.3071099817752838,1236,1083,1265,1054,0,0,0,4,1,0
4304,0.4523005187511444,-0.8644014596939087,271.45773315429693,-0.008320586755871773,-0.17584924399852753,9.877887725830078,0.4739468991756439,0.8279457688331604,-0.20673853158950808,-0.011889999732375143,-0.1606599986553192,0.3071099817752838,1236,1083,1265,1054,0,0,0,5,1,0
4307,0.3226316869258881,-0.8466749787330627,271.6026611328125,0.03781237453222275,-0.1468449831008911,9.864422798156738,0.4020138680934906,0.6846358776092529,-0.0622643232345581,-0.011889999732375143,-0.1606599986553192,0.3071099817752838,1236,1083,1265,1054,0,0,0,5,1,0
4308,0.295007199048996,-0.8022773265838623,271.7484741210937,0.026151644065976143,-0.13468356430530548,9.828902244567873,0.4318913519382477,0.5956543684005737,-0.15239796042442322,-0.011889999732375143,-0.1606599986553192,0.3071099817752838,1236,1083,1265,1054,0,0,0,5,1,0
4310,0.2765205502510071,-1.0013539791107178,271.88589477539057,0.024837244302034375,-0.2076252102851868,9.839742660522461,0.4950625896453858,0.6686080694198608,-0.2229333221912384,-0.011889999732375143,-0.1606599986553192,0.3071099817752838,1236,1083,1265,1054,0,0,0,5,1,0
4311,0.2339702546596527,-1.0570833683013916,271.95425415039057,0.037158017978072166,-0.21057236194610596,9.857116222381592,0.4699355512857437,0.6622453331947327,-0.18297400325536728,-0.011889999732375143,-0.1606599986553192,0.3071099817752838,1236,1083,1265,1054,0,0,0,5,1,0
4312,0.19141995906829834,-1.1128127574920654,272.02261352539057,0.04947879165410996,-0.21351951360702515,9.874489784240724,0.4448085129261017,0.6558825969696045,-0.14301468431949615,-0.011889999732375143,-0.1606599986553192,0.3071099817752838,1236,1083,1265,1054,0,0,0,4,1,0
4314,-1.4300590753555298,-0.8456207513809204,271.07437133789057,0.03604552522301674,-0.1465936303138733,9.855710983276367,0.42363688349723816,0.5505120158195496,-0.15327569842338562,0.03248000144958496,-0.15544000267982486,0.3129099905490875,1236,1083,1265,1054,0,0,0,4,1,0
4316,-1.7618774175643919,-0.9865468740463256,270.041259765625,0.01111089624464512,-0.20259231328964236,9.899188041687012,0.44568416476249695,0.6013288497924805,-0.2665654420852661,0.03248000144958496,-0.15544000267982486,0.3129099905490875,1236,1083,1265,1054,0,0,0,4,1,0
4318,-1.807299017906189,-0.9992637038230896,269.13870239257807,0.04325374960899353,-0.19548727571964264,9.90960693359375,0.4200693070888519,0.5692600607872009,-0.200476735830307,0.03248000144958496,-0.15544000267982486,0.3129099905490875,1236,1083,1265,1054,0,0,0,4,1,0
4319,-1.7108900547027588,-0.9049970209598541,268.72618103027344,0.02979671861976385,-0.1731010526418686,9.901910305023193,0.4554668515920639,0.5740044414997101,-0.22565089166164398,0.03248000144958496,-0.15544000267982486,0.3129099905490875,1237,1082,1264,1055,0,0,0,4,1,0
4320,-1.6144810914993286,-0.8107303380966187,268.31365966796875,0.016339687630534172,-0.15071482956409454,9.894213676452637,0.4908643960952759,0.5787488222122192,-0.25082504749298096,0.03248000144958496,-0.15544000267982486,0.3129099905490875,1237,1082,1264,1055,0,0,0,4,1,0
4322,-1.45837140083313,-1.0429569482803345,267.55575561523443,0.00599629245698452,-0.21897801756858826,9.91090488433838,0.4864214658737183,0.5941042900085449,-0.3074871301651001,0.03248000144958496,-0.15544000267982486,0.3129099905490875,1237,1082,1264,1055,0,0,0,4,1,0
4324,-1.4958227872848509,-1.0525462627410889,266.86065673828125,0.04705194383859634,-0.20518985390663147,9.883009910583496,0.504196047782898,0.5332152247428894,-0.2346365302801132,0.03248000144958496,-0.15544000267982486,0.3129099905490875,1237,1082,1264,1055,0,0,0,4,1,0
4326,-1.2754966020584106,-0.9893116354942322,266.21786499023443,0.005589388310909271,-0.1898779720067978,9.889655113220217,0.4655489325523377,0.5867419838905334,-0.2724655866622925,0.03248000144958496,-0.15544000267982486,0.3129099905490875,1237,1082,1264,1055,0,0,0,4,1,0
4327,-1.2507279515266418,-1.096311241388321,265.9210510253907,0.013162960298359396,-0.21741623431444168,9.88559627532959,0.4363081157207489,0.6317377984523773,-0.27770721912384033,0.03248000144958496,-0.15544000267982486,0.3129099905490875,1231,1088,1259,1060,0,0,0,4,1,0
4328,-1.225959300994873,-1.2033108472824097,265.62423706054693,0.02073653228580952,-0.2449544966220856,9.881537437438963,0.40706729888916016,0.6767336130142212,-0.2829488515853882,0.03248000144958496,-0.15544000267982486,0.3129099905490875,1231,1088,1259,1060,0,0,0,1,1,0
4330,0.34919509291648865,-1.0329298973083496,266.440185546875,0.06296877562999725,-0.2643070518970489,9.87338161468506,0.3645671010017395,0.5637676119804382,-0.2135651409626007,-0.06757000088691711,-0.16211000084877014,0.31116998195648193,1231,1088,1259,1060,0,0,0,1,1,0
4332,1.595995306968689,-0.8943087458610535,267.2977294921875,0.04481076449155808,-0.2367076128721237,9.85581874847412,0.4837291240692138,0.6047078371047974,-0.2061153799295425,-0.06757000088691711,-0.16211000084877014,0.31116998195648193,1231,1088,1259,1060,0,0,0,1,1,0
4334,2.472738027572632,-0.8783085346221924,268.15692138671875,0.018315469846129414,-0.2662830948829651,9.89803981781006,0.5428584218025208,0.7112743854522705,-0.2578197717666626,-0.06757000088691711,-0.16211000084877014,0.31116998195648193,1231,1088,1259,1060,0,0,0,1,1,0
4335,2.6684515476226807,-0.8744112849235535,268.5845184326172,0.04836867284029722,-0.2600427716970444,9.880048274993896,0.5740125179290771,0.6629360318183899,-0.2337171584367752,-0.06757000088691711,-0.16211000084877014,0.31116998195648193,1233,1086,1261,1058,0,0,0,1,1,0
4336,2.864165067672729,-0.8705140352249146,269.01211547851557,0.07842187583446503,-0.2538024485111237,9.862056732177734,0.6051666140556335,0.6145976781845093,-0.20961454510688785,-0.06757000088691711,-0.16211000084877014,0.31116998195648193,1233,1086,1261,1058,0,0,0,14,1,0
4338,3.0811688899993896,-0.8592373132705688,269.83004760742193,0.05159374326467514,-0.2444632798433304,9.847116470336914,0.664686918258667,0.6329535841941833,-0.18749874830245966,-0.06757000088691711,-0.16211000084877014,0.31116998195648193,1233,1086,1261,1058,0,0,0,14,1,0
4340,3.149000883102417,-0.9044264554977416,270.61203002929693,0.05030357837677002,-0.2674423158168793,9.86866855621338,0.5916849374771118,0.6739078164100647,-0.15994922816753387,-0.06757000088691711,-0.16211000084877014,0.31116998195648193,1233,1086,1261,1058,0,0,0,14,1,0
4342,3.0325591564178467,-0.8931207656860352,271.37307739257807,0.10095436871051787,-0.2474348247051239,9.840023040771484,0.5556191802024841,0.5332517623901367,-0.11970585584640504,-0.06757000088691711,-0.16211000084877014,0.31116998195648193,1233,1086,1261,1058,0,0,0,14,1,0
4343,3.0239760875701904,-0.8975737988948822,271.74136352539057,0.07618256099522112,-0.25174082815647125,9.841663360595703,0.5593526065349579,0.5147887319326401,-0.1140199601650238,-0.06757000088691711,-0.16211000084877014,0.31116998195648193,1243,1076,1270,1049,0,0,0,14,1,0
4344,3.0153930187225337,-0.9020268321037292,272.10964965820307,0.051410753279924386,-0.2560468316078186,9.843303680419922,0.5630860328674316,0.4963257014751434,-0.10833406448364258,-0.06757000088691711,-0.16211000084877014,0.31116998195648193,1243,1076,1270,1049,0,0,0,12,1,0
4346,2.0972771644592285,-1.2147212028503418,272.34347534179693,0.01028972864151001,-0.29430586099624634,9.86865234375,0.5069740414619446,0.5529002547264099,-0.07212807238101959,-0.03480000048875809,-0.17457999289035794,0.3276999890804291,1243,1076,1270,1049,0,0,0,12,1,0
4348,1.5382739305496216,-1.328282117843628,272.6680908203125,0.056833088397979736,-0.2726133167743683,9.859201431274414,0.5051416158676147,0.4866909384727478,-0.020460736006498337,-0.03480000048875809,-0.17457999289035794,0.3276999890804291,1243,1076,1270,1049,0,0,0,12,1,0
4350,1.2982397079467771,-1.37861430644989,273.0272216796875,0.04319712519645691,-0.26981112360954285,9.81340503692627,0.5461205244064331,0.4951902329921722,-0.092301107943058,-0.03480000048875809,-0.17457999289035794,0.3276999890804291,1243,1076,1270,1049,0,0,0,12,1,0
4351,1.2617809772491455,-1.453719973564148,273.2049102783203,0.031191854737699032,-0.2943165451288223,9.834043979644775,0.5270927548408508,0.5204722136259079,-0.05740534514188766,-0.03480000048875809,-0.17457999289035794,0.3276999890804291,1245,1074,1272,1047,0,0,0,12,1,0
4352,1.2253222465515137,-1.5288256406784058,273.38259887695307,0.019186584278941158,-0.3188219666481018,9.85468292236328,0.5080649852752686,0.5457541942596436,-0.02250958234071732,-0.03480000048875809,-0.17457999289035794,0.3276999890804291,1245,1074,1272,1047,0,0,0,5,2,0
4354,1.0655874013900757,-1.5013298988342283,273.73629760742193,0.06027438119053841,-0.2766104638576508,9.820489883422852,0.466386616230011,0.454341322183609,0.0118880532681942,-0.03480000048875809,-0.17457999289035794,0.3276999890804291,1245,1074,1272,1047,0,0,0,5,2,0
4356,1.026889085769653,-1.5257160663604736,274.08114624023443,0.036254815757274635,-0.29163363575935364,9.812764167785645,0.4609845280647278,0.5031969547271729,-0.12110598385334015,-0.03480000048875809,-0.17457999289035794,0.3276999890804291,1245,1074,1272,1047,0,0,0,5,2,0
4358,0.9957752227783204,-1.6489672660827637,274.40969848632807,0.03123236447572708,-0.3335689306259155,9.838756561279297,0.36572593450546265,0.4559344351291657,-0.015309266746044159,-0.03480000048875809,-0.17457999289035794,0.3276999890804291,1245,1074,1272,1047,0,0,0,5,2,0
4359,0.9372558295726776,-1.594635784626007,274.5714569091797,0.046828629449009895,-0.29999345541000366,9.823593616485596,0.313200443983078,0.38567502796649933,-0.007035876624286175,-0.03480000048875809,-0.17457999289035794,0.3276999890804291,1241,1078,1266,1053,0,0,0,5,2,0
4360,0.8787364363670349,-1.5403043031692505,274.73321533203125,0.06242489442229271,-0.2664179801940918,9.808430671691896,0.26067495346069336,0.315415620803833,0.0012375134974718096,-0.03480000048875809,-0.17457999289035794,0.3276999890804291,1241,1078,1266,1053,0,0,0,6,3,0
4362,-0.7242985367774963,-1.4156278371810913,274.03759765625,0.05430677905678749,-0.22463279962539676,9.767793655395508,0.2817311286926269,0.3232476711273193,-0.13890674710273745,0.01624000072479248,-0.1725499927997589,0.3120400011539459,1241,1078,1266,1053,0,0,0,6,3,0
4364,-1.2970023155212402,-1.5855196714401243,273.3746337890625,0.030649557709693912,-0.2911210656166077,9.809536933898926,0.2507212460041046,0.4105428457260132,-0.20087677240371704,0.01624000072479248,-0.1725499927997589,0.3120400011539459,1241,1078,1266,1053,0,0,0,6,3,0
4366,-1.5344058275222778,-1.5612838268280032,272.82083129882807,0.07940178364515305,-0.2649674415588379,9.809234619140623,0.2542880475521088,0.3142232894897461,-0.06832547485828401,0.01624000072479248,-0.1725499927997589,0.3120400011539459,1241,1078,1266,1053,0,0,0,6,3,0
4367,-1.5088690519332886,-1.5230283737182617,272.5746612548828,0.0706569105386734,-0.25561217218637466,9.797314167022703,0.315768301486969,0.35433050990104675,-0.1487267091870308,0.01624000072479248,-0.1725499927997589,0.3120400011539459,1241,1078,1266,1053,0,0,0,6,3,0
4368,-1.483332276344299,-1.4847729206085205,272.3284912109375,0.06191203743219376,-0.24625690281391144,9.785393714904783,0.3772485554218292,0.3944377303123474,-0.2291279435157776,0.01624000072479248,-0.1725499927997589,0.3120400011539459,1241,1078,1266,1053,0,0,0,6,2,0
4370,-1.4041739702224731,-1.7093595266342163,271.8822631835937,0.057171702384948724,-0.3187330365180969,9.789386749267578,0.3692998588085175,0.4768882393836975,-0.2773975431919098,0.01624000072479248,-0.1725499927997589,0.3120400011539459,1241,1078,1266,1053,0,0,0,6,2,0
4372,-1.4309922456741333,-1.6496148109436035,271.4642944335937,0.08725355565547943,-0.27695518732070923,9.761807441711426,0.3659433126449585,0.326360285282135,-0.13585926592350006,0.01624000072479248,-0.1725499927997589,0.3120400011539459,1241,1078,1266,1053,0,0,0,6,2,0
4374,-1.3101048469543457,-1.657625436782837,271.07730102539057,0.060116041451692574,-0.285980761051178,9.751214027404783,0.3641324937343597,0.3279736042022705,-0.2613154649734497,0.01624000072479248,-0.1725499927997589,0.3120400011539459,1241,1078,1266,1053,0,0,0,6,2,0
4375,-1.2933462262153625,-1.760891079902649,270.8983612060547,0.06621267087757587,-0.31483669579029083,9.748140811920166,0.35070928931236267,0.3360025882720947,-0.2725742757320404,0.01624000072479248,-0.1725499927997589,0.3120400011539459,1235,1084,1260,1059,0,0,0,6,2,0
4376,-1.2765876054763794,-1.864156723022461,270.71942138671875,0.07230930030345918,-0.3436926305294037,9.745067596435547,0.3372860848903656,0.3440315723419189,-0.2838330864906311,0.01624000072479248,-0.1725499927997589,0.3120400011539459,1235,1084,1260,1059,0,0,0,1,3,0
4378,-0.028972135856747624,-1.7666475772857666,271.26611328125,0.10672257095575333,-0.3283330500125885,9.755183219909668,0.30658051371574396,0.25850617885589605,-0.1598583459854126,-0.02986999973654747,-0.15166999399662018,0.3172599971294403,1235,1084,1260,1059,0,0,0,1,3,0
4380,0.6067078113555908,-1.600916028022766,271.77783203125,0.08814999461174011,-0.27657151222229004,9.725314140319824,0.35174310207366943,0.18772071599960327,-0.20958751440048215,-0.02986999973654747,-0.15166999399662018,0.3172599971294403,1235,1084,1260,1059,0,0,0,1,3,0
4382,0.8353556990623474,-1.6853791475296018,272.2357788085937,0.08182905614376068,-0.32974690198898315,9.753850936889648,0.31040850281715393,0.2074010968208313,-0.3084164261817932,-0.02986999973654747,-0.15166999399662018,0.3172599971294403,1235,1084,1260,1059,0,0,0,1,3,0
4383,0.8136600852012634,-1.66440349817276,272.4513244628906,0.09808007627725601,-0.3147505819797516,9.747377872467041,0.29976367950439453,0.16822746396064758,-0.2579694911837578,-0.02986999973654747,-0.15166999399662018,0.3172599971294403,1237,1082,1259,1060,0,0,0,1,3,0
4384,0.7919644713401794,-1.6434278488159182,272.6668701171875,0.11433109641075136,-0.29975426197052,9.740904808044434,0.28911885619163513,0.12905383110046387,-0.20752255618572235,-0.02986999973654747,-0.15166999399662018,0.3172599971294403,1237,1082,1259,1060,0,0,0,8,3,0
4386,0.8108189105987549,-1.5534862279891968,273.07821655273443,0.08789822459220886,-0.2761041224002838,9.737876892089844,0.30367594957351685,0.06291070580482483,-0.2473978400230408,-0.02986999973654747,-0.15166999399662018,0.3172599971294403,1237,1082,1259,1060,0,0,0,8,3,0
4388,0.7674325108528137,-1.6503235101699831,273.466796875,0.09385157376527786,-0.3225987553596497,9.753337860107422,0.3430000841617584,0.1112741082906723,-0.3070819079875946,-0.02986999973654747,-0.15166999399662018,0.3172599971294403,1237,1082,1259,1060,0,0,0,8,3,0
4390,0.6349123120307922,-1.6150130033493042,273.84796142578125,0.12470318377017975,-0.295573353767395,9.743703842163086,0.3534720838069916,0.041819214820861816,-0.21949052810668945,-0.02986999973654747,-0.15166999399662018,0.3172599971294403,1237,1082,1259,1060,0,0,0,8,3,0
4391,0.6587315499782562,-1.5889228582382202,274.03135681152344,0.1015167348086834,-0.2900550365447998,9.759399890899658,0.3453234136104584,0.07100673019886017,-0.26142600178718567,-0.02986999973654747,-0.15166999399662018,0.3172599971294403,1243,1076,1267,1052,0,0,0,8,3,0
4392,0.6825507879257202,-1.5628327131271362,274.21475219726557,0.07833028584718704,-0.2845367193222046,9.77509593963623,0.3371747434139252,0.10019424557685852,-0.3033614754676819,-0.02986999973654747,-0.15166999399662018,0.3172599971294403,1243,1076,1267,1052,0,0,0,5,3,0
4394,0.3650393784046173,-1.6754779815673828,274.33306884765625,0.053681131452322006,-0.3116844892501831,9.801271438598633,0.3728431463241577,0.20098066329956052,-0.4002144932746887,-0.01971999928355217,-0.16559000313282013,0.31610000133514404,1243,1076,1267,1052,0,0,0,5,3,0
4396,0.1264619082212448,-1.7536327838897705,274.4808959960937,0.09612653404474257,-0.3205743432044983,9.780488014221193,0.4107099175453186,0.1577189713716507,-0.3608083128929138,-0.01971999928355217,-0.16559000313282013,0.31610000133514404,1243,1076,1267,1052,0,0,0,5,3,0
4398,0.11323080956935885,-1.7309013605117798,274.637451171875,0.06412772834300995,-0.3001241087913513,9.761068344116213,0.3784574270248413,0.1670619398355484,-0.350256085395813,-0.01971999928355217,-0.16559000313282013,0.31610000133514404,1243,1076,1267,1052,0,0,0,5,3,0
4399,0.11182754486799242,-1.798781394958496,274.7112121582031,0.061529163271188736,-0.3249083310365677,9.774349212646484,0.39290693402290344,0.20903991907835004,-0.37163984775543213,-0.01971999928355217,-0.16559000313282013,0.31610000133514404,1243,1076,1266,1053,0,0,0,5,3,0
4400,0.11042428016662598,-1.8666614294052124,274.78497314453125,0.05893059819936752,-0.3496925532817841,9.787630081176758,0.4073564410209656,0.2510178983211517,-0.3930236101150513,-0.01971999928355217,-0.16559000313282013,0.31610000133514404,1243,1076,1266,1053,0,0,0,3,3,0
4402,-0.03439883142709732,-1.929503083229065,274.93386840820307,0.10729902982711792,-0.3472025692462921,9.741432189941406,0.3913987874984741,0.1514166295528412,-0.3508192598819733,-0.01971999928355217,-0.16559000313282013,0.31610000133514404,1243,1076,1266,1053,0,0,0,3,3,0
4404,0.006924532819539309,-1.9636811017990112,275.08139038085943,0.06852881610393524,-0.3483302593231201,9.741230010986328,0.3610280156135559,0.1536320149898529,-0.3404775559902191,-0.01971999928355217,-0.16559000313282013,0.31610000133514404,1243,1076,1266,1053,0,0,0,3,3,0
4406,-0.006068261805921793,-2.084045886993408,275.21865844726557,0.07455438375473022,-0.3824574947357178,9.750727653503418,0.2796747982501984,0.18475396931171414,-0.3318286240100861,-0.01971999928355217,-0.16559000313282013,0.31610000133514404,1243,1076,1266,1053,0,0,0,3,3,0
4407,-0.060747456969693296,-2.0890032052993774,275.2873992919922,0.09143327921628952,-0.3738010376691818,9.730380058288574,0.2686163038015366,0.1288910023868084,-0.31653331220149994,-0.01971999928355217,-0.16559000313282013,0.31610000133514404,1241,1078,1262,1057,0,0,0,3,3,0
4408,-0.1154266521334648,-2.0939605236053467,275.35614013671875,0.10831217467784883,-0.3651445806026459,9.71003246307373,0.2575578093528748,0.07302803546190262,-0.3012380003929138,-0.01971999928355217,-0.16559000313282013,0.31610000133514404,1241,1078,1262,1057,0,0,0,3,4,0
4410,0.07733600586652756,-2.0406637191772456,275.62283325195307,0.09035534411668776,-0.3505423367023468,9.69882106781006,0.2683551907539368,0.062121596187353134,-0.2830913662910461,-0.03770000115036965,-0.2296800017356873,0.3108800053596497,1241,1078,1262,1057,0,0,0,3,4,0
4415,0.12079336245854694,-2.0332703590393066,275.9091084798177,0.08965727935234705,-0.3586352964242299,9.719921429951986,0.3196170826752981,0.1055601661403974,-0.2592945247888565,-0.03770000115036965,-0.2296800017356873,0.3108800053596497,1241,1078,1262,1057,0,0,0,3,4,0
4416,0.16425071905056632,-2.0258769989013676,276.1953837076823,0.08895921458800633,-0.36672825614611304,9.741021792093912,0.37087897459665936,0.14899873609344166,-0.2354976832866669,-0.03770000115036965,-0.2296800017356873,0.3108800053596497,1241,1078,1262,1057,0,0,0,4,4,0
4418,0.20770807564258573,-2.018483638763428,276.48165893554693,0.08826114982366562,-0.3748212158679962,9.76212215423584,0.42214086651802063,0.1924373060464859,-0.21170084178447726,-0.03770000115036965,-0.2296800017356873,0.3108800053596497,1241,1078,1262,1057,0,0,0,4,4,0
4420,0.11537446081638335,-1.9467936754226685,276.66876220703125,0.13074271380901334,-0.3234143257141113,9.727904319763184,0.4309453368186951,0.09625745564699173,-0.20576536655426025,-0.03770000115036965,-0.2296800017356873,0.3108800053596497,1241,1078,1262,1057,0,0,0,4,4,0
4422,0.14418020844459534,-1.94768500328064,276.8475341796875,0.07813560962677002,-0.3477966785430908,9.716198921203613,0.4218651652336121,0.18866947293281555,-0.21912898123264316,-0.03770000115036965,-0.2296800017356873,0.3108800053596497,1241,1078,1262,1057,0,0,0,4,4,0
4423,0.14191170036792755,-1.9603245854377749,276.93121337890625,0.08071919903159142,-0.35439762473106384,9.735538959503174,0.41299597918987274,0.19005927443504333,-0.14307401329278946,-0.03770000115036965,-0.2296800017356873,0.3108800053596497,1243,1076,1263,1056,0,0,0,4,4,0
4424,0.13964319229125974,-1.9729641675949097,277.014892578125,0.08330278843641281,-0.3609985709190369,9.754878997802734,0.4041267931461334,0.19144907593727112,-0.06701904535293579,-0.03770000115036965,-0.2296800017356873,0.3108800053596497,1243,1076,1263,1056,0,0,0,4,4,0
4426,0.003338666632771492,-1.8605393171310425,277.23098754882807,0.11536848545074466,-0.3230701982975006,9.759385108947754,0.4192105531692505,0.12061281502246855,0.01993890106678009,-0.024939998984336853,-0.14065000414848328,0.3395899832248688,1243,1076,1263,1056,0,0,0,4,4,0
4428,-0.003979437984526157,-1.8069396018981931,277.44354248046875,0.1013062745332718,-0.31821268796920776,9.721220970153807,0.5726195573806763,0.22828364372253415,-0.15894754230976105,-0.024939998984336853,-0.14065000414848328,0.3395899832248688,1243,1076,1263,1056,0,0,0,4,4,0
4430,0.034102100878953934,-1.996388554573059,277.64193725585943,0.084465891122818,-0.3736327588558197,9.745054244995117,0.5590794086456299,0.28947630524635315,-0.14084920287132266,-0.024939998984336853,-0.14065000414848328,0.3395899832248688,1243,1076,1263,1056,0,0,0,4,4,0
4431,-0.033317746594548225,-1.925414264202118,277.74008178710943,0.10361549258232117,-0.3456493467092514,9.738470554351807,0.5605640709400177,0.23271123319864273,-0.08995522931218149,-0.024939998984336853,-0.14065000414848328,0.3395899832248688,1243,1076,1262,1057,0,0,0,4,4,0
4432,-0.10073759406805037,-1.8544399738311768,277.83822631835943,0.12276509404182435,-0.3176659345626831,9.731886863708496,0.5620487332344055,0.1759461611509323,-0.03906125575304032,-0.024939998984336853,-0.14065000414848328,0.3395899832248688,1243,1076,1262,1057,0,0,0,4,4,0
4434,-0.05277453362941742,-1.8579572439193728,278.02813720703125,0.09293398261070253,-0.33111563324928284,9.721654891967773,0.5516812801361084,0.24648267030715945,-0.16803193092346191,-0.024939998984336853,-0.14065000414848328,0.3395899832248688,1243,1076,1262,1057,0,0,0,4,4,0
4436,-0.07395670562982559,-2.0219950675964355,278.20693969726557,0.09874852746725082,-0.3740493059158325,9.735847473144533,0.5179334878921509,0.2892712354660034,-0.08189546316862106,-0.024939998984336853,-0.14065000414848328,0.3395899832248688,1243,1076,1262,1057,0,0,0,4,4,0
4438,-0.22343291342258453,-1.83073365688324,278.38775634765625,0.13718168437480927,-0.3073885142803192,9.698927879333496,0.4730972349643707,0.11785507202148438,-0.05362116545438767,-0.024939998984336853,-0.14065000414848328,0.3395899832248688,1243,1076,1262,1057,0,0,0,4,4,0
4439,-0.21046485751867294,-1.860182762145996,278.47698974609375,0.12556298822164536,-0.32410435378551483,9.700927734375,0.5071985870599747,0.16146297752857208,-0.16367588564753535,-0.024939998984336853,-0.14065000414848328,0.3395899832248688,1243,1076,1261,1058,0,0,0,4,4,0
4440,-0.19749680161476132,-1.8896318674087524,278.56622314453125,0.11394429206848145,-0.34082019329071045,9.702927589416504,0.5412999391555786,0.2050708830356598,-0.27373060584068304,-0.024939998984336853,-0.14065000414848328,0.3395899832248688,1243,1076,1261,1058,0,0,0,3,3,0
4442,-1.395501971244812,-2.1965343952178955,278.14755249023443,0.13098542392253876,-0.3686952888965607,9.735379219055176,0.5697175860404968,0.3474675416946411,-0.2930367588996887,0.0034799999557435517,-0.10700999945402144,0.3407500088214874,1243,1076,1261,1058,0,0,0,3,3,0
4444,-1.5632691383361816,-2.070709228515625,277.79299926757807,0.172487273812294,-0.3410620093345642,9.718058586120604,0.5827872157096863,0.24620461463928225,-0.2529390156269073,0.0034799999557435517,-0.10700999945402144,0.3407500088214874,1243,1076,1261,1058,0,0,0,3,3,0
4446,-1.4443293809890747,-1.9757767915725708,277.4498291015625,0.14827674627304074,-0.3245206475257873,9.681099891662598,0.6354044675827026,0.267289400100708,-0.4555743634700775,0.0034799999557435517,-0.10700999945402144,0.3407500088214874,1243,1076,1261,1058,0,0,0,3,3,0
4447,-1.386302411556244,-2.1713698506355286,277.29042053222656,0.13934113085269928,-0.3611982464790344,9.698351383209229,0.620598316192627,0.29212257266044617,-0.4728987365961075,0.0034799999557435517,-0.10700999945402144,0.3407500088214874,1243,1076,1263,1056,0,0,0,3,3,0
4448,-1.328275442123413,-2.3669629096984863,277.13101196289057,0.1304055154323578,-0.3978758454322815,9.71560287475586,0.6057921648025513,0.3169557452201843,-0.4902231097221375,0.0034799999557435517,-0.10700999945402144,0.3407500088214874,1243,1076,1263,1056,0,0,0,3,4,0
4450,-1.3663101196289062,-2.104987382888794,276.81069946289057,0.144948348402977,-0.346920371055603,9.700678825378418,0.5753288865089417,0.19330385327339167,-0.2984778881072998,0.0034799999557435517,-0.10700999945402144,0.3407500088214874,1243,1076,1263,1056,0,0,0,3,4,0
4452,-1.1947274208068848,-2.0838286876678467,276.48532104492193,0.1083061546087265,-0.34530243277549744,9.682665824890137,0.5056846141815186,0.15379251539707184,-0.2995635271072388,0.0034799999557435517,-0.10700999945402144,0.3407500088214874,1243,1076,1263,1056,0,0,0,3,4,0
4454,-1.1554927825927734,-2.4861960411071777,276.18942260742193,0.1084207370877266,-0.418512761592865,9.679858207702637,0.4581567049026489,0.16561521589756012,-0.17673231661319733,0.0034799999557435517,-0.10700999945402144,0.3407500088214874,1243,1076,1263,1056,0,0,0,3,4,0
4455,-1.1747926473617554,-2.3494343757629395,276.0440673828125,0.1153356209397316,-0.39161519706249237,9.663917064666748,0.39285804331302643,0.093635693192482,-0.06425080448389053,0.0034799999557435517,-0.10700999945402144,0.3407500088214874,1240,1079,1256,1063,0,0,0,3,4,0
4456,-1.1940925121307373,-2.212672710418701,275.89871215820307,0.1222505047917366,-0.36471763253211975,9.64797592163086,0.32755938172340393,0.02165617048740387,0.04823070764541626,0.0034799999557435517,-0.10700999945402144,0.3407500088214874,1240,1079,1256,1063,0,0,0,1,6,0
4458,0.15898942947387695,-1.9021748304367063,276.50332641601557,0.09104853868484496,-0.3643712103366852,9.654436111450195,0.2823095917701721,-0.04866674542427063,-0.047180935740470886,-0.05857999995350838,-0.15892000496387482,0.3511900007724762,1240,1079,1256,1063,0,0,0,1,6,0
4460,0.948415756225586,-1.8475757837295528,277.10482788085943,0.08115218579769135,-0.4026155471801758,9.6964693069458,0.2911105155944824,0.029357738792896267,-0.15238167345523834,-0.05857999995350838,-0.15892000496387482,0.3511900007724762,1240,1079,1256,1063,0,0,0,1,6,0
4462,1.1426070928573608,-1.8524918556213381,277.6759033203125,0.13425037264823916,-0.4023858010768889,9.699416160583496,0.2687525749206543,-0.012153126299381256,-0.14474616944789884,-0.05857999995350838,-0.15892000496387482,0.3511900007724762,1240,1079,1256,1063,0,0,0,1,6,0
4463,1.1603091359138489,-1.8185432553291323,277.94630432128906,0.13424689322710037,-0.38713701069355005,9.69903564453125,0.2666586935520172,-0.014460495673120022,-0.24425383657217026,-0.05857999995350838,-0.15892000496387482,0.3511900007724762,1242,1077,1259,1060,0,0,0,1,6,0
4464,1.178011178970337,-1.7845946550369265,278.21670532226557,0.1342434138059616,-0.3718882203102112,9.698655128479004,0.2645648121833801,-0.016767865046858788,-0.34376150369644165,-0.05857999995350838,-0.15892000496387482,0.3511900007724762,1242,1077,1259,1060,0,0,0,9,3,0
4466,1.1238856315612793,-1.8624489307403564,278.73196411132807,0.14531686902046204,-0.4113121926784515,9.713414192199707,0.2398163378238678,0.05347083508968353,-0.5725069046020508,-0.05857999995350838,-0.15892000496387482,0.3511900007724762,1242,1077,1259,1060,0,0,0,9,3,0
